Dumping...Opened file : /CANSAT28.txt
DATA
 Baro error
init done, waiting for arm
gps_lng, gps_lat, gps_height, gps_count, avrg_det, mag_x[F], mag_y[F], mag_z[F], acc_x[F], acc_y[F], acc_z[F], gyro_x[F], gyro_y[F], gyro_z[F], baro_height, baro, temp, humid, light, time

Done dumping, do you want to delete the file? Yes/No
Unexpected input try again
Unexpected input try again
Removed : /CANSAT28.txt
Type _erase_ to format, Type _dump_ to dump latest file
Dumping...Opened file : /CANSAT27.txt
DATA
 Baro error
init done, waiting for arm
gps_lng, gps_lat, gps_height, gps_count, avrg_det, mag_x[F], mag_y[F], mag_z[F], acc_x[F], acc_y[F], acc_z[F], gyro_x[F], gyro_y[F], gyro_z[F], baro_height, baro, temp, humid, light, time
NOISE recieved: daD|kNP0
NOISE recieved: daD|kNP0
NOISE recieved: daD|kNP0
NOISE recieved: ?��sp��
NOISE recieved: Y^q} �r�j
0.000000,0.000000,0.00,3122,0.00,-11.70,-55.05,-12.60,-0.78,-0.78,3.12,0.55,11.47,3.42,0.00,0.00,0.00,31.13,1978.00,89719
0.000000,0.000000,0.00,3122,0.00,-12.45,-55.20,-12.60,-0.78,-0.78,3.12,1.04,10.01,5.55,0.00,0.00,0.00,31.07,1961.00,119805
0.000000,0.000000,0.00,3122,0.00,-10.65,-53.25,-13.35,-0.78,-0.78,3.12,-0.31,10.44,5.31,0.00,0.00,0.00,30.91,1880.00,204109
Arming singal recieved
ascent_state
24.129803,56.962570,15.60,7,0.00,28.95,-39.60,-15.00,-0.78,-0.78,3.90,15.44,34.48,-7.51,0.00,0.00,0.00,30.55,2628.00,229756
24.129803,56.962570,15.60,7,-2.00,27.45,-37.05,-15.00,-0.78,-0.78,3.12,102.54,45.78,6.04,0.00,0.00,0.00,30.53,2670.00,230037
24.129803,56.962570,15.60,7,-1.00,26.10,-31.35,-15.30,-0.78,-0.78,3.12,221.07,-17.27,1.53,0.00,0.00,0.00,30.49,2758.00,230316
24.129688,56.962475,21.40,6,-1.00,28.05,-23.10,-9.90,-0.78,-0.78,3.12,222.78,51.51,-9.64,0.00,0.00,0.00,30.41,2826.00,230680
24.129688,56.962475,21.40,6,-1.00,28.35,-19.35,-8.40,0.00,-0.78,3.12,76.60,57.80,-7.45,0.00,0.00,0.00,30.36,2866.00,230965
24.129688,56.962475,21.40,6,-1.00,30.60,-19.35,-6.60,-0.78,-0.78,2.34,-96.44,88.56,6.35,0.00,0.00,0.00,30.32,2877.00,231244
24.129709,56.962498,21.40,6,-1.00,33.30,-22.05,-7.65,-0.78,0.00,2.34,-138.12,68.54,18.92,0.00,0.00,0.00,30.29,2875.00,231526
24.129709,56.962498,21.40,6,-1.00,34.95,-27.75,-8.10,-0.78,-0.78,2.34,-92.71,-2.38,73.36,0.00,0.00,0.00,30.25,2860.00,231815
24.129709,56.962498,21.40,6,-1.00,30.60,-24.75,-10.65,-0.78,0.00,3.12,-25.39,-104.19,141.66,0.00,0.00,0.00,30.21,2901.00,232177
24.129709,56.962498,21.40,6,-1.00,26.25,-24.75,-12.00,-0.78,0.00,3.12,-49.44,-43.76,172.30,0.00,0.00,0.00,30.16,2930.00,232459
24.129761,56.962536,23.90,7,-1.00,24.15,-26.85,-14.55,-0.78,-0.78,3.12,-191.28,34.36,193.91,0.00,0.00,0.00,30.11,2947.00,232746
24.129761,56.962536,23.90,7,-1.00,22.80,-31.95,-16.50,-0.78,0.00,3.12,-106.32,15.87,233.70,0.00,0.00,0.00,30.13,2911.00,233031
24.129761,56.962536,23.90,7,-1.00,19.95,-32.40,-16.35,0.00,-0.78,3.12,-47.91,-72.69,276.92,0.00,0.00,0.00,30.07,2901.00,233319
24.129816,56.962563,29.30,7,-1.00,15.30,-32.10,-17.55,-0.78,-0.78,3.12,-79.96,16.60,277.34,0.00,0.00,0.00,30.05,2851.00,233682
24.129816,56.962563,29.30,7,-1.00,11.40,-33.45,-17.70,0.00,-0.78,3.12,6.84,-52.19,276.12,0.00,0.00,0.00,30.02,2814.00,233972
24.129816,56.962563,29.30,7,-1.00,10.50,-28.50,-16.95,0.00,-0.78,3.12,99.61,-17.46,183.59,0.00,0.00,0.00,30.00,2802.00,234265
24.129835,56.962593,29.30,7,-1.00,6.60,-26.85,-16.20,-0.78,-0.78,3.12,39.06,-0.61,164.92,0.00,0.00,0.00,29.99,2796.00,234562
24.129835,56.962593,35.00,7,-1.00,5.55,-26.85,-15.75,-0.78,-0.78,3.12,29.30,42.24,164.06,0.00,0.00,0.00,29.96,2760.00,234854
24.129835,56.962593,35.00,7,23.82,3.30,-27.30,-16.35,-0.78,-0.78,2.34,18.49,4.09,127.38,0.00,0.00,0.00,29.90,2716.00,235220
24.129841,56.962605,35.00,7,24.96,1.50,-25.50,-15.60,0.00,-0.78,3.12,131.59,-4.03,151.61,0.00,0.00,0.00,29.87,2700.00,235512
24.129841,56.962605,35.00,7,26.10,-0.30,-24.60,-15.30,0.00,-0.78,3.12,31.37,19.59,104.25,0.00,0.00,0.00,29.83,2673.00,235811
24.129841,56.962605,35.00,7,26.90,-2.70,-26.85,-15.15,-0.78,-0.78,2.34,0.18,18.07,44.13,0.00,0.00,0.00,29.76,2668.00,236103
24.129841,56.962605,35.00,7,27.70,-1.50,-24.90,-15.90,0.00,-0.78,3.12,8.42,5.19,13.06,0.00,0.00,0.00,29.70,2670.00,236397
24.129826,56.962608,47.00,7,28.50,-1.65,-24.90,-15.45,0.00,-0.78,2.34,-0.37,3.36,21.06,0.00,0.00,0.00,29.65,2670.00,236768
24.129826,56.962608,47.00,7,30.01,-2.10,-24.75,-15.15,-0.78,-0.78,2.34,8.91,16.48,41.93,0.00,0.00,0.00,29.60,2664.00,237065
24.129826,56.962608,47.00,7,31.51,-2.70,-25.50,-14.85,-0.78,0.00,3.12,13.55,16.60,38.76,0.00,0.00,0.00,29.54,2652.00,237359
24.129791,56.962616,51.80,7,33.02,-2.70,-24.75,-15.15,-0.78,-0.78,2.34,3.97,10.07,37.60,0.00,0.00,0.00,29.51,2648.00,237655
24.129791,56.962616,51.80,7,34.81,-2.40,-25.35,-15.30,-0.78,-0.78,2.34,10.01,23.44,36.50,0.00,0.00,0.00,29.46,2651.00,237985
24.129791,56.962616,51.80,7,36.45,-4.80,-26.40,-14.70,0.00,-0.78,3.12,9.28,-3.85,33.45,0.00,0.00,0.00,29.38,2642.00,238329
24.129745,56.962608,51.80,7,38.97,-4.20,-25.05,-14.85,-0.78,-0.78,3.12,3.72,9.89,38.70,0.00,0.00,0.00,29.38,2644.00,238606
24.129745,56.962608,56.00,8,-1.00,-3.00,-24.75,-14.85,0.00,-0.78,3.12,22.34,27.10,27.77,0.00,0.00,0.00,29.31,2640.00,238883
24.129745,56.962608,56.00,8,41.30,-3.00,-24.60,-14.40,0.00,-0.78,2.34,27.59,5.31,33.20,0.00,0.00,0.00,29.32,2632.00,239160
24.129745,56.962608,56.00,8,42.87,-4.20,-25.20,-14.55,-0.78,-0.78,3.12,3.85,10.62,31.25,0.00,0.00,0.00,29.24,2634.00,239435
24.129688,56.962593,56.00,8,44.44,-4.20,-24.75,-14.25,0.00,0.00,3.12,3.78,28.20,34.30,0.00,0.00,0.00,29.21,2632.00,239787
24.129688,56.962593,56.00,8,46.01,-5.55,-25.35,-13.65,-0.78,-0.78,3.12,8.42,7.87,32.41,0.00,0.00,0.00,29.18,2634.00,240067
24.129688,56.962593,56.00,8,47.25,-5.55,-26.70,-14.10,-0.78,-0.78,3.12,11.66,28.99,30.52,0.00,0.00,0.00,29.15,2624.00,240351
24.129629,56.962570,62.30,8,48.48,-5.25,-25.20,-14.40,-0.78,-0.78,3.12,10.68,20.26,30.82,0.00,0.00,0.00,29.11,2623.00,240633
24.129629,56.962570,62.30,8,50.09,-5.85,-25.65,-14.10,-0.78,-0.78,3.12,14.83,28.44,21.12,0.00,0.00,0.00,29.09,2628.00,240918
24.129629,56.962570,62.30,8,51.69,-5.70,-24.15,-14.10,0.00,-0.78,3.12,5.86,21.30,18.01,0.00,0.00,0.00,29.06,2626.00,241273
24.129555,56.962551,62.30,8,53.30,-5.70,-25.05,-13.95,-0.78,-0.78,3.12,3.54,22.83,23.93,0.00,0.00,0.00,29.00,2628.00,241555
24.129555,56.962551,62.30,8,54.91,-6.75,-23.25,-13.95,-0.78,-0.78,3.12,-2.38,16.60,6.53,0.00,0.00,0.00,28.98,2627.00,241842
24.129555,56.962551,62.30,8,55.81,-6.30,-24.60,-13.35,-0.78,-0.78,3.12,-0.31,13.06,27.47,0.00,0.00,0.00,28.96,2627.00,242124
24.129555,56.962551,62.30,8,56.71,-6.90,-24.90,-13.50,-0.78,-0.78,3.12,0.31,9.40,17.27,0.00,0.00,0.00,28.89,2619.00,242405
24.129486,56.962528,70.30,8,57.61,-6.00,-24.60,-14.55,-0.78,-0.78,3.12,4.03,14.04,23.68,0.00,0.00,0.00,28.86,2630.00,242768
24.129486,56.962528,70.30,8,58.69,-6.15,-24.15,-12.90,-0.78,0.00,3.90,12.02,19.84,12.57,0.00,0.00,0.00,28.81,2625.00,243056
24.129486,56.962528,70.30,8,59.78,-7.05,-24.90,-13.20,-0.78,-0.78,3.12,7.57,6.90,20.75,0.00,0.00,0.00,28.82,2625.00,243340
24.129398,56.962517,74.90,8,60.87,-7.35,-25.50,-13.50,-0.78,-0.78,3.12,-217.53,-23.13,37.41,0.00,0.00,0.00,28.74,2618.00,243628
24.129398,56.962517,74.90,8,62.23,-8.25,-29.55,-14.85,-0.78,-0.78,3.12,-51.82,-4.52,17.40,0.00,0.00,0.00,28.70,2597.00,243918
24.129398,56.962517,74.90,8,63.34,-7.95,-29.25,-14.85,-0.78,-0.78,3.12,-17.88,3.30,10.93,0.00,0.00,0.00,28.68,2600.00,244277
24.129305,56.962502,74.90,8,64.45,-8.40,-32.25,-14.55,-0.78,-0.78,3.12,-12.27,4.70,3.97,0.00,0.00,0.00,28.62,2590.00,244567
24.129305,56.962502,79.90,8,65.56,-8.10,-30.45,-14.85,-0.78,-0.78,2.34,7.51,15.69,23.86,0.00,0.00,0.00,28.56,2584.00,244861
24.129305,56.962502,79.90,8,66.97,-9.45,-31.05,-14.25,-0.78,-0.78,3.12,-19.35,25.51,16.91,0.00,0.00,0.00,28.55,2596.00,245155
24.129305,56.962502,79.90,8,68.38,-11.85,-32.40,-14.25,0.00,0.00,3.12,-75.68,-198.06,29.48,0.00,0.00,0.00,28.53,2593.00,245450
24.129227,56.962482,79.90,8,69.78,-16.35,-34.95,-11.25,0.00,-0.78,3.12,-41.14,-106.08,22.46,0.00,0.00,0.00,28.50,2609.00,245820
24.129227,56.962482,79.90,8,70.82,-23.10,-37.50,-7.50,-0.78,-0.78,3.12,-53.83,-102.84,23.32,0.00,0.00,0.00,28.46,2619.00,246115
24.129227,56.962482,79.90,8,71.85,-24.60,-37.35,-7.50,0.00,-0.78,2.34,-4.39,10.13,10.80,0.00,0.00,0.00,28.46,2617.00,246406
24.129171,56.962452,88.70,8,72.89,-23.55,-40.05,-7.35,0.00,-0.78,3.12,-62.50,32.84,11.84,0.00,0.00,0.00,28.45,2615.00,246701
24.129171,56.962452,88.70,8,74.44,-24.45,-39.00,-6.75,-0.78,-0.78,3.12,52.00,-72.69,19.10,0.00,0.00,0.00,28.41,2613.00,247002
24.129171,56.962452,88.70,8,75.99,-26.85,-40.20,-5.10,-0.78,-0.78,3.12,4.70,-57.92,42.85,0.00,0.00,0.00,28.41,2627.00,247374
24.129154,56.962437,92.10,8,77.55,-27.00,-40.05,-3.90,-0.78,-0.78,2.34,68.18,42.30,8.06,0.00,0.00,0.00,28.36,2620.00,247711
24.129154,56.962437,92.10,8,79.30,-26.40,-37.35,-5.55,-0.78,-0.78,2.34,49.68,49.87,-1.22,0.00,0.00,0.00,28.35,2618.00,247987
24.129154,56.962437,92.10,8,80.58,-27.60,-37.95,-4.80,-0.78,-0.78,2.34,-29.36,-75.81,26.31,0.00,0.00,0.00,28.36,2632.00,248262
24.129175,56.962429,92.10,8,81.86,-29.25,-37.65,-3.90,-0.78,-0.78,2.34,-15.44,5.13,10.68,0.00,0.00,0.00,28.31,2632.00,248535
24.129175,56.962429,94.00,8,83.15,-29.10,-38.85,-4.35,-0.78,-0.78,3.12,114.01,30.33,-7.32,0.00,0.00,0.00,28.31,2632.00,248886
24.129175,56.962429,94.00,8,84.27,-26.85,-34.95,-4.95,-0.78,-0.78,3.12,61.22,43.21,-0.85,0.00,0.00,0.00,28.33,2635.00,249165
24.129175,56.962429,94.00,8,85.39,-27.45,-33.00,-4.35,-0.78,-0.78,2.34,-42.18,-7.02,12.15,0.00,0.00,0.00,28.34,2641.00,249440
24.129225,56.962425,94.50,8,86.52,-26.55,-35.10,-5.10,-0.78,-0.78,3.12,24.41,-4.76,4.88,0.00,0.00,0.00,28.36,2636.00,249721
24.129225,56.962425,94.50,8,87.67,-25.95,-32.55,-5.10,0.00,-0.78,3.12,57.56,69.76,4.70,0.00,0.00,0.00,28.36,2642.00,250001
24.129225,56.962425,94.50,8,88.53,-25.20,-31.35,-5.40,-0.78,-0.78,3.12,4.94,-5.68,7.75,0.00,0.00,0.00,28.35,2641.00,250355
24.129284,56.962444,94.90,8,89.39,-24.90,-32.10,-4.95,-0.78,-0.78,3.12,36.68,36.32,2.38,0.00,0.00,0.00,28.38,2645.00,250635
24.129284,56.962444,94.90,8,90.27,-23.70,-32.70,-7.20,-0.78,-0.78,3.12,52.80,135.38,-0.06,0.00,0.00,0.00,28.40,2638.00,250917
24.129284,56.962444,94.90,8,91.15,-20.10,-28.95,-7.50,-0.78,-0.78,3.12,4.03,-17.27,5.25,0.00,0.00,0.00,28.40,2638.00,251199
24.129284,56.962444,94.90,8,92.04,-21.45,-30.90,-6.45,-0.78,-1.56,3.12,-150.82,-12.63,18.92,0.00,0.00,0.00,28.38,2641.00,251482
24.129339,56.962475,95.80,8,92.92,-22.80,-34.35,-7.50,-0.78,-0.78,3.12,-41.99,15.63,7.87,0.00,0.00,0.00,28.46,2626.00,251840
24.129339,56.962475,95.80,8,93.34,-22.05,-33.45,-7.80,0.00,-0.78,3.12,48.16,52.92,0.00,0.00,0.00,0.00,28.45,2634.00,252122
24.129339,56.962475,95.80,8,93.75,-21.00,-32.70,-8.55,-0.78,-0.78,3.12,-16.78,82.21,5.31,0.00,0.00,0.00,28.44,2619.00,252410
24.129393,56.962509,97.30,8,94.17,-19.20,-34.95,-10.65,-0.78,-0.78,3.12,-18.37,45.72,8.73,0.00,0.00,0.00,28.46,2606.00,252696
24.129393,56.962509,97.30,8,-1.00,-17.55,-36.60,-10.80,-0.78,-0.78,3.12,-25.33,23.80,7.39,0.00,0.00,0.00,28.50,2602.00,252986
24.129393,56.962509,97.30,8,94.63,-18.15,-36.60,-11.10,-0.78,-0.78,3.12,-12.21,32.65,9.28,0.00,0.00,0.00,28.48,2592.00,253348
24.129444,56.962540,99.90,8,95.09,-18.00,-35.55,-10.35,-0.78,-0.78,3.12,46.14,20.81,6.90,0.00,0.00,0.00,28.49,2601.00,253636
24.129444,56.962540,99.90,8,95.55,-17.85,-34.65,-11.55,0.00,-0.78,3.12,34.48,30.58,19.90,0.00,0.00,0.00,28.52,2602.00,253923
24.129444,56.962540,99.90,8,95.89,-16.20,-34.50,-11.85,-0.78,-0.78,3.12,-6.47,38.39,13.92,0.00,0.00,0.00,28.52,2593.00,254211
24.129498,56.962559,99.90,8,96.24,-13.95,-35.25,-12.75,0.00,-0.78,3.12,1.34,52.43,-1.53,0.00,0.00,0.00,28.52,2587.00,254502
24.129498,56.962559,99.90,8,96.59,-12.00,-35.25,-14.70,-0.78,-0.78,3.12,-36.25,51.45,4.15,0.00,0.00,0.00,28.54,2577.00,254871
24.129498,56.962559,99.90,8,96.91,-13.65,-37.95,-15.60,0.00,-0.78,3.12,-1.83,21.79,18.80,0.00,0.00,0.00,28.55,2564.00,255164
24.129498,56.962559,99.90,8,97.22,-12.90,-36.45,-14.70,-0.78,-0.78,3.12,-15.38,-19.35,33.87,0.00,0.00,0.00,28.52,2559.00,255457
24.129543,56.962570,107.40,8,97.54,-13.35,-36.75,-14.85,-0.78,-0.78,3.12,54.93,-15.99,30.52,0.00,0.00,0.00,28.53,2567.00,255752
24.129543,56.962570,107.40,8,98.28,-14.40,-36.00,-13.50,-0.78,-0.78,3.12,48.16,10.25,36.32,0.00,0.00,0.00,28.53,2580.00,256044
24.129543,56.962570,107.40,8,99.01,-14.40,-35.40,-14.55,0.00,-0.78,3.12,4.39,17.21,23.50,0.00,0.00,0.00,28.54,2579.00,256418
24.129581,56.962566,111.50,8,99.75,-13.35,-36.75,-14.40,-0.78,-1.56,3.12,14.28,3.36,23.80,0.00,0.00,0.00,28.52,2572.00,256714
24.129581,56.962566,111.50,8,100.72,-12.45,-35.70,-13.95,-0.78,-0.78,3.12,15.44,-7.26,23.44,0.00,0.00,0.00,28.52,2584.00,257010
24.129581,56.962566,111.50,8,101.65,-15.00,-34.80,-12.45,-0.78,-0.78,3.12,20.08,-37.84,22.16,0.00,0.00,0.00,28.53,2592.00,257305
24.129610,56.962551,115.70,8,102.57,-17.25,-33.45,-10.80,-0.78,-0.78,3.12,4.88,-19.96,21.79,0.00,0.00,0.00,28.52,2613.00,257637
24.129610,56.962551,115.70,8,103.74,-18.00,-32.70,-9.60,0.00,-0.78,3.12,-5.68,-34.12,15.38,0.00,0.00,0.00,28.51,2614.00,257988
24.129610,56.962551,115.70,8,105.29,-19.65,-34.65,-10.50,-0.78,-0.78,2.34,-0.55,-45.23,6.96,0.00,0.00,0.00,28.50,2615.00,258262
24.129629,56.962536,115.70,8,-1.00,-22.95,-33.30,-7.50,-0.78,-0.78,2.34,-11.96,-56.70,7.81,0.00,0.00,0.00,28.50,2622.00,258538
24.129629,56.962536,119.60,8,106.99,-22.35,-34.35,-7.50,-0.78,-0.78,3.12,10.62,29.85,6.96,0.00,0.00,0.00,28.51,2619.00,258816
24.129629,56.962536,119.60,8,108.15,-21.15,-32.40,-8.40,-0.78,-0.78,3.12,8.36,24.84,7.26,0.00,0.00,0.00,28.50,2628.00,259090
24.129629,56.962536,119.60,8,109.31,-23.25,-34.95,-7.65,-0.78,-0.78,3.12,9.34,11.72,6.41,0.00,0.00,0.00,28.46,2627.00,259439
24.129641,56.962532,123.90,8,110.46,-23.10,-32.40,-7.50,-0.78,-0.78,3.12,26.43,-36.19,10.74,0.00,0.00,0.00,28.50,2636.00,259718
24.129641,56.962532,123.90,8,111.88,-23.85,-32.55,-7.20,0.00,-0.78,2.34,33.51,31.68,1.22,0.00,0.00,0.00,28.48,2634.00,260004
24.129641,56.962532,123.90,8,113.29,-22.80,-31.95,-8.10,-0.78,-0.78,3.12,45.72,77.70,-0.06,0.00,0.00,0.00,28.48,2623.00,260283
24.129646,56.962536,123.90,8,114.70,-21.30,-31.50,-7.50,0.00,-0.78,3.12,-20.20,15.93,3.60,0.00,0.00,0.00,28.48,2628.00,260567
24.129646,56.962536,128.10,8,116.11,-22.65,-31.95,-7.05,0.00,-0.78,2.34,3.48,-0.79,2.32,0.00,0.00,0.00,28.53,2626.00,260925
24.129646,56.962536,128.10,8,117.33,-22.80,-30.75,-7.50,0.00,-0.78,3.12,3.66,16.91,2.32,0.00,0.00,0.00,28.46,2633.00,261207
24.129646,56.962536,128.10,8,118.55,-21.90,-30.90,-7.35,-0.78,-0.78,3.12,-4.15,-23.86,3.91,0.00,0.00,0.00,28.51,2630.00,261490
24.129642,56.962547,132.10,8,119.76,-24.15,-32.55,-7.05,-0.78,-0.78,3.12,-5.92,7.02,6.59,0.00,0.00,0.00,28.47,2634.00,261773
24.129642,56.962547,132.10,8,120.98,-24.15,-31.35,-7.35,-0.78,-0.78,3.12,-1.89,18.25,9.09,0.00,0.00,0.00,28.50,2636.00,262061
24.129642,56.962547,132.10,8,122.19,-22.95,-33.00,-7.20,-0.78,-0.78,2.34,-60.61,8.42,7.14,0.00,0.00,0.00,28.48,2630.00,262418
24.129631,56.962566,135.80,8,123.40,-24.45,-33.00,-5.85,0.00,-0.78,3.12,-44.62,-83.62,15.99,0.00,0.00,0.00,28.48,2636.00,262714
24.129631,56.962566,135.80,8,124.58,-26.85,-34.65,-3.60,0.00,-0.78,3.12,-15.32,3.60,9.77,0.00,0.00,0.00,28.49,2637.00,263001
24.129631,56.962566,135.80,8,125.76,-27.45,-34.20,-4.65,-0.78,-0.78,3.12,-7.39,17.27,9.46,0.00,0.00,0.00,28.50,2629.00,263290
24.129616,56.962593,135.80,8,126.95,-25.95,-35.25,-4.80,-0.78,-0.78,3.12,-34.48,22.83,6.84,0.00,0.00,0.00,28.49,2628.00,263577
24.129616,56.962593,139.60,8,128.13,-25.35,-39.00,-7.65,-0.78,-0.78,3.12,-62.44,146.73,0.24,0.00,0.00,0.00,28.52,2604.00,263940
24.129616,56.962593,139.60,8,129.31,-18.90,-37.35,-9.75,0.00,-0.78,2.34,0.79,105.29,2.62,0.00,0.00,0.00,28.51,2595.00,264228
24.129610,56.962624,139.60,8,130.48,-16.65,-37.50,-12.90,0.00,-0.78,3.12,-53.53,113.16,11.29,0.00,0.00,0.00,28.50,2581.00,264520
24.129610,56.962624,139.60,8,131.66,-12.75,-39.00,-14.25,-0.78,-0.78,3.12,-88.99,74.52,14.59,0.00,0.00,0.00,28.48,2559.00,264817
24.129610,56.962624,139.60,8,132.58,-14.25,-39.90,-13.95,0.00,-0.78,3.12,82.15,23.80,26.98,0.00,0.00,0.00,28.50,2559.00,265111
24.129610,56.962624,139.60,8,133.51,-12.00,-38.55,-14.25,-0.78,-0.78,3.12,26.55,63.17,39.73,0.00,0.00,0.00,28.51,2559.00,265478
24.129616,56.962643,147.40,8,134.43,-11.25,-39.00,-15.00,-0.78,-0.78,3.12,11.11,36.68,31.49,0.00,0.00,0.00,28.50,2558.00,265771
24.129616,56.962643,147.40,8,135.81,-11.40,-40.35,-15.15,-0.78,-0.78,3.12,25.63,20.26,26.49,0.00,0.00,0.00,28.50,2557.00,266066
24.129616,56.962643,147.40,8,136.95,-11.25,-37.05,-14.85,-0.78,-0.78,2.34,18.43,15.01,17.82,0.00,0.00,0.00,28.46,2559.00,266360
24.129625,56.962646,152.10,8,138.08,-10.80,-37.50,-15.75,-0.78,-0.78,2.34,-6.84,20.87,6.90,0.00,0.00,0.00,28.50,2559.00,266658
24.129625,56.962646,152.10,8,139.49,-9.90,-37.50,-15.45,-0.78,-0.78,3.12,-8.79,9.09,7.75,0.00,0.00,0.00,28.51,2559.00,267039
24.129625,56.962646,152.10,8,140.67,-10.05,-38.25,-15.60,-0.78,-0.78,3.12,-3.17,3.48,6.77,0.00,0.00,0.00,28.50,2553.00,267368
24.129631,56.962631,157.00,8,141.85,-9.60,-38.40,-15.75,0.00,-0.78,3.12,-19.04,15.38,6.59,0.00,0.00,0.00,28.49,2553.00,267648
24.129631,56.962631,157.00,8,143.31,-9.45,-38.55,-15.15,-0.78,-0.78,3.12,8.61,25.39,2.38,0.00,0.00,0.00,28.48,2541.00,267928
24.129631,56.962631,157.00,8,144.56,-10.50,-40.50,-15.90,-0.78,-0.78,3.12,23.13,-15.75,5.25,0.00,0.00,0.00,28.47,2550.00,268202
24.129631,56.962605,157.00,8,145.81,-10.65,-37.05,-15.15,-0.78,-0.78,3.12,4.09,10.86,7.02,0.00,0.00,0.00,28.49,2559.00,268552
24.129631,56.962605,161.60,8,147.05,-10.65,-38.40,-16.05,-0.78,-0.78,3.12,18.25,-13.12,11.90,0.00,0.00,0.00,28.50,2557.00,268828
24.129631,56.962605,161.60,8,148.57,-11.85,-37.05,-15.00,-0.78,-0.78,3.12,22.58,-25.15,12.02,0.00,0.00,0.00,28.47,2559.00,269109
24.129631,56.962605,161.60,8,149.86,-13.20,-34.80,-14.85,-0.78,-0.78,2.34,30.09,-23.38,8.18,0.00,0.00,0.00,28.47,2563.00,269386
24.129627,56.962566,166.10,8,151.16,-14.85,-35.40,-14.10,-0.78,-0.78,3.12,4.27,4.21,8.18,0.00,0.00,0.00,28.50,2584.00,269668
24.129627,56.962566,166.10,8,152.72,-12.45,-35.55,-14.40,0.00,0.00,3.12,6.23,-4.58,-4.76,0.00,0.00,0.00,28.47,2573.00,270031
24.129627,56.962566,166.10,8,154.28,-13.95,-35.25,-13.65,-0.78,-0.78,2.34,31.80,-31.25,1.40,0.00,0.00,0.00,28.49,2581.00,270319
24.129620,56.962524,166.10,8,155.84,-17.40,-35.10,-12.60,0.00,-0.78,3.12,-61.58,-75.20,11.05,0.00,0.00,0.00,28.49,2582.00,270601
24.129620,56.962524,169.80,8,157.39,-19.80,-36.45,-11.25,-0.78,-0.78,3.12,-74.04,-12.88,-2.01,0.00,0.00,0.00,28.48,2590.00,270886
24.129620,56.962524,169.80,8,158.71,-21.30,-37.05,-12.15,-0.78,-0.78,3.12,-19.71,31.74,-3.85,0.00,0.00,0.00,28.48,2585.00,271168
24.129602,56.962482,169.80,8,160.03,-16.05,-36.60,-12.45,-0.78,-0.78,3.12,31.19,17.52,-5.07,0.00,0.00,0.00,28.46,2580.00,271527
24.129602,56.962482,172.40,8,161.35,-17.40,-36.45,-12.45,-0.78,0.00,3.12,12.02,-50.66,6.71,0.00,0.00,0.00,28.47,2587.00,271811
24.129602,56.962482,172.40,8,162.54,-18.60,-35.55,-11.25,-0.78,-0.78,3.12,32.90,-0.67,4.64,0.00,0.00,0.00,28.45,2594.00,272097
24.129602,56.962482,172.40,8,163.74,-18.90,-34.80,-12.00,-0.78,-0.78,3.12,23.01,16.24,3.54,0.00,0.00,0.00,28.46,2586.00,272383
24.129589,56.962448,175.00,8,164.93,-19.65,-33.45,-9.60,-0.78,-0.78,3.12,11.05,-62.01,1.71,0.00,0.00,0.00,28.46,2592.00,272674
24.129589,56.962448,175.00,8,165.99,-20.10,-34.50,-10.05,-0.78,-0.78,2.34,-54.50,53.28,-3.42,0.00,0.00,0.00,28.47,2596.00,273038
24.129589,56.962448,175.00,8,167.05,-20.55,-34.50,-10.80,-0.78,-0.78,3.12,-11.11,14.04,-11.90,0.00,0.00,0.00,28.48,2601.00,273325
24.129572,56.962421,177.40,8,168.11,-20.10,-34.20,-10.05,-0.78,-0.78,3.12,-31.49,-11.72,-12.33,0.00,0.00,0.00,28.45,2604.00,273619
24.129572,56.962421,177.40,8,169.31,-19.35,-35.85,-10.35,-0.78,-0.78,3.12,-59.39,15.32,-4.58,0.00,0.00,0.00,28.46,2600.00,273910
24.129572,56.962421,177.40,8,170.24,-20.70,-36.75,-9.75,-0.78,0.00,3.12,13.92,-40.22,-5.80,0.00,0.00,0.00,28.43,2601.00,274199
24.129557,56.962399,177.40,8,171.16,-23.85,-36.60,-7.35,-0.78,-0.78,3.12,13.49,-13.37,6.59,0.00,0.00,0.00,28.46,2608.00,274564
24.129557,56.962399,179.50,8,172.09,-22.35,-35.40,-7.80,0.00,-0.78,3.12,0.24,-38.33,14.95,0.00,0.00,0.00,28.43,2604.00,274859
24.129557,56.962399,179.50,8,172.88,-25.20,-35.70,-6.60,0.00,-0.78,2.34,0.73,-42.60,11.35,0.00,0.00,0.00,28.44,2612.00,275151
24.129557,56.962399,179.50,8,173.67,-27.15,-35.55,-5.85,0.00,-0.78,3.12,-14.04,12.76,10.44,0.00,0.00,0.00,28.44,2616.00,275447
24.129547,56.962383,181.10,8,174.46,-25.20,-36.15,-6.00,-0.78,-0.78,3.12,-4.76,51.33,7.81,0.00,0.00,0.00,28.40,2606.00,275744
24.129547,56.962383,181.10,8,175.34,-26.70,-36.15,-6.45,-0.78,-0.78,3.12,-19.47,-30.46,8.42,0.00,0.00,0.00,28.44,2602.00,276119
24.129547,56.962383,181.10,8,176.01,-24.90,-36.60,-6.60,-0.78,-0.78,3.12,0.06,19.41,5.98,0.00,0.00,0.00,28.43,2603.00,276414
24.129547,56.962383,182.10,8,176.67,-22.80,-38.70,-9.60,-0.78,-0.78,3.12,-17.94,140.81,3.72,0.00,0.00,0.00,28.43,2596.00,276714
24.129547,56.962383,182.10,8,177.39,-19.20,-36.90,-11.85,-0.78,-0.78,3.12,-67.32,-15.50,11.60,0.00,0.00,0.00,28.42,2584.00,277043
24.129547,56.962383,182.10,8,177.96,-21.15,-38.40,-10.50,-0.78,-0.78,3.12,7.14,-78.92,11.60,0.00,0.00,0.00,28.43,2582.00,277319
24.129555,56.962383,183.30,8,178.54,-25.20,-38.40,-8.25,-0.78,-0.78,3.12,-0.06,-54.38,14.40,0.00,0.00,0.00,28.40,2600.00,277667
24.129555,56.962383,183.30,8,179.18,-25.20,-38.55,-7.05,-0.78,-0.78,3.12,10.01,-4.46,12.02,0.00,0.00,0.00,28.39,2600.00,277941
24.129555,56.962383,183.30,8,179.66,-25.05,-37.95,-7.35,-0.78,-0.78,2.34,8.91,28.75,4.03,0.00,0.00,0.00,28.39,2597.00,278214
24.129574,56.962387,183.30,8,180.15,-25.50,-37.65,-5.40,-0.78,-0.78,3.12,12.15,-49.62,9.34,0.00,0.00,0.00,28.40,2602.00,278494
24.129574,56.962387,184.60,8,180.64,-26.70,-35.85,-6.15,-0.78,-0.78,2.34,5.31,-0.85,4.64,0.00,0.00,0.00,28.42,2606.00,278771
24.129574,56.962387,184.60,8,181.06,-25.50,-37.20,-6.45,0.00,-0.78,3.12,-11.60,30.52,-9.64,0.00,0.00,0.00,28.39,2597.00,279134
24.129574,56.962387,184.60,8,181.49,-24.75,-37.50,-6.90,0.00,-0.78,3.12,3.85,69.34,-0.06,0.00,0.00,0.00,28.35,2601.00,279412
24.129597,56.962399,185.50,8,181.91,-23.85,-36.00,-6.15,0.00,-0.78,3.12,-5.80,-37.90,-1.95,0.00,0.00,0.00,28.38,2602.00,279691
24.129597,56.962399,185.50,8,182.39,-24.00,-37.05,-6.30,-0.78,-0.78,3.12,2.50,10.13,0.67,0.00,0.00,0.00,28.37,2603.00,279973
24.129597,56.962399,185.50,8,182.74,-26.70,-36.60,-5.55,0.00,-0.78,3.12,-17.70,-3.36,-7.39,0.00,0.00,0.00,28.35,2606.00,280257
24.129633,56.962418,185.50,8,183.09,-25.35,-35.10,-5.55,-0.78,-0.78,3.12,6.96,41.87,6.41,0.00,0.00,0.00,28.40,2610.00,280615
24.129633,56.962418,185.50,8,183.45,-25.65,-36.75,-6.30,-0.78,-0.78,3.12,3.91,46.57,-1.22,0.00,0.00,0.00,28.36,2609.00,280900
24.129633,56.962418,185.50,8,183.71,-21.90,-35.40,-8.10,-0.78,-0.78,3.12,-2.38,44.56,1.40,0.00,0.00,0.00,28.37,2604.00,281186
24.129633,56.962418,185.50,8,183.96,-22.35,-33.45,-8.85,0.00,-0.78,3.12,-23.44,-1.16,-0.55,0.00,0.00,0.00,28.34,2600.00,281471
24.129671,56.962444,191.90,8,184.22,-22.95,-33.90,-7.65,-0.78,-0.78,2.34,11.11,-19.29,-1.46,0.00,0.00,0.00,28.33,2614.00,281758
24.129671,56.962444,191.90,8,184.80,-24.60,-33.45,-7.95,-0.78,-0.78,3.12,-5.13,22.77,5.55,0.00,0.00,0.00,28.35,2607.00,282131
24.129671,56.962444,191.90,8,185.38,-22.65,-33.75,-7.05,-0.78,-0.78,3.12,4.94,1.04,15.26,0.00,0.00,0.00,28.37,2604.00,282420
24.129709,56.962475,196.50,8,185.95,-23.85,-34.35,-7.80,-0.78,-0.78,3.12,-3.05,-5.00,5.86,0.00,0.00,0.00,28.34,2598.00,282711
24.129709,56.962475,196.50,8,186.73,-24.00,-37.20,-7.80,-0.78,-0.78,3.12,-10.01,11.90,5.07,0.00,0.00,0.00,28.33,2605.00,283005
24.129709,56.962475,196.50,8,187.51,-23.70,-34.65,-7.65,-0.78,-0.78,3.12,-6.41,-1.22,7.08,0.00,0.00,0.00,28.32,2604.00,283294
24.129745,56.962505,201.30,8,188.28,-24.45,-34.35,-7.35,-0.78,-0.78,3.12,-12.15,2.08,8.30,0.00,0.00,0.00,28.32,2608.00,283657
24.129745,56.962505,201.30,8,189.34,-24.60,-34.80,-6.45,-0.78,-0.78,3.12,-20.32,-28.44,4.21,0.00,0.00,0.00,28.31,2604.00,283947
24.129745,56.962505,201.30,8,190.32,-25.35,-34.95,-5.40,0.00,-0.78,2.34,-12.51,19.84,5.37,0.00,0.00,0.00,28.29,2604.00,284243
24.129786,56.962536,201.30,8,191.31,-26.10,-35.25,-4.80,0.00,-0.78,3.12,2.38,30.52,6.53,0.00,0.00,0.00,28.29,2604.00,284534
24.129786,56.962536,201.30,8,192.29,-25.50,-34.50,-6.45,0.00,-0.78,3.12,12.15,36.07,5.80,0.00,0.00,0.00,28.26,2604.00,284832
24.129786,56.962536,201.30,8,193.22,-25.20,-36.45,-6.15,-0.78,-0.78,3.12,-15.20,-0.06,14.53,0.00,0.00,0.00,28.26,2602.00,285206
24.129786,56.962536,201.30,8,194.15,-23.85,-35.25,-6.45,0.00,-0.78,3.12,3.72,12.33,4.52,0.00,0.00,0.00,28.26,2596.00,285503
24.129835,56.962570,209.60,8,195.08,-23.10,-36.00,-8.85,-0.78,-0.78,2.34,4.27,53.71,5.19,0.00,0.00,0.00,28.26,2593.00,285798
24.129835,56.962570,209.60,8,196.49,-22.35,-36.15,-8.85,-0.78,-0.78,2.34,-0.61,9.70,10.31,0.00,0.00,0.00,28.26,2591.00,286093
24.129835,56.962570,209.60,8,197.91,-23.10,-35.55,-8.55,-0.78,-0.78,2.34,-23.25,-6.29,11.66,0.00,0.00,0.00,28.26,2589.00,286389
24.129885,56.962608,213.10,8,199.33,-23.25,-35.70,-9.00,-0.78,-0.78,3.12,5.74,69.27,9.22,0.00,0.00,0.00,28.26,2590.00,286791
hard_lock turned off
24.129936,56.962639,213.10,8,201.52,-16.50,-38.70,-12.90,-0.78,-0.78,3.12,-22.77,-40.59,14.53,0.00,0.00,0.00,28.15,2559.00,288477
24.129986,56.962666,217.40,8,-2.00,-17.40,-36.45,-11.55,-0.78,-0.78,3.12,-34.85,12.45,14.16,0.00,0.00,0.00,28.15,2560.00,288756
24.129986,56.962666,217.40,8,-1.00,-17.85,-37.95,-13.05,-0.78,-0.78,2.34,-33.69,75.56,15.99,0.00,0.00,0.00,28.15,2556.00,289037
24.129986,56.962666,217.40,8,-1.00,-13.95,-38.85,-14.25,-0.78,-0.78,2.34,2.62,64.58,7.69,0.00,0.00,0.00,28.14,2550.00,289389
24.130032,56.962688,219.30,8,-1.00,-13.65,-39.30,-14.85,-0.78,-0.78,3.12,10.44,65.80,5.80,0.00,0.00,0.00,28.09,2546.00,289668
24.130032,56.962688,219.30,8,-1.00,-12.15,-39.45,-15.60,-0.78,-0.78,3.12,2.99,41.08,10.01,0.00,0.00,0.00,28.08,2542.00,289946
24.130032,56.962688,219.30,8,-1.00,-10.50,-37.80,-15.45,0.00,0.00,3.12,7.87,53.77,3.11,0.00,0.00,0.00,28.07,2532.00,290227
24.130074,56.962692,219.30,8,-1.00,-11.70,-37.35,-15.90,-0.78,-0.78,3.12,-8.67,16.85,9.28,0.00,0.00,0.00,28.07,2536.00,290512
nanosat jection detected
descent_state
24.130074,56.962692,219.30,8,2546.00,-15.30,-35.70,-12.90,-0.78,-0.78,3.12,4.52,-3.23,8.85,0.00,0.00,0.00,27.96,2559.00,293366
Landing detected
landed_state

Done dumping, do you want to delete the file? Yes/No
Type _erase_ to format, Type _dump_ to dump latest file
