Inizializing FS...Done.
Type _erase_ to format, Type _dump_ to dump latest file
Dumping...Opened file : /CANSAT3.txt
DATA
Acc error Baro error Humidity error
init done, waiting for arm
gps_lng, gps_lat, gps_height, gps_count, avrg_det, mag_x[F], mag_y[F], mag_z[F], acc_x[F], acc_y[F], acc_z[F], gyro_x[F], gyro_y[F], gyro_z[F], baro_height, baro, temp, humid, light, since_gps, time

Done dumping, do you want to delete the file? Yes/No
Unexpected input try again
Removed : /CANSAT3.txt
Type _erase_ to format, Type _dump_ to dump latest file
Dumping...Opened file : /CANSAT2.txt
DATA
Acc error Baro error Humidity error
init done, waiting for arm
gps_lng, gps_lat, gps_height, gps_count, avrg_det, mag_x[F], mag_y[F], mag_z[F], acc_x[F], acc_y[F], acc_z[F], gyro_x[F], gyro_y[F], gyro_z[F], baro_height, baro, temp, humid, light, since_gps, time
0.000000,0.000000,0.00,0,0.00,-56.10,-34.80,31.80,0.00,0.00,0.00,-38.02,-11.60,-38.82,0.00,0.00,0.00,0.00,2860.00,18988
0.000000,0.000000,0.00,0,0.00,-73.35,-22.80,55.05,0.00,0.00,0.00,13.55,-1.46,16.17,0.00,0.00,0.00,0.00,3113.00,29276
0.000000,0.000000,0.00,0,0.00,-50.85,-27.30,27.00,0.00,0.00,0.00,-9.58,36.07,23.80,0.00,0.00,0.00,0.00,3748.00,43724
25.321798,57.320812,116.30,12,0.00,-60.90,-44.85,9.45,0.00,0.00,0.00,-0.61,0.06,-8.00,0.00,0.00,0.00,0.00,3549.00,57374
25.321800,57.320820,117.70,12,0.00,-55.95,-39.45,14.40,0.00,0.00,0.00,-108.22,0.67,84.59,0.00,0.00,0.00,0.00,3102.00,67623
25.321798,57.320820,117.70,12,0.00,-125.85,24.75,12.45,0.00,0.00,0.00,-1.77,-0.18,-6.84,0.00,0.00,0.00,0.00,3893.00,213512
25.321789,57.320824,122.10,12,0.00,-121.95,25.35,5.70,0.00,0.00,0.00,163.33,6.84,-50.11,0.00,0.00,0.00,0.00,3693.00,222971
Arming singal recieved
ascent_state
25.321789,57.320824,122.10,12,0.00,-56.40,-49.80,10.80,0.00,0.00,0.00,1.65,8.06,-7.08,0.00,0.00,0.00,0.00,3347.00,251341
25.321789,57.320824,122.10,12,-1.00,-55.95,-45.75,10.50,0.00,0.00,0.00,14.28,34.12,-5.74,0.00,0.00,0.00,0.00,3360.00,251588
25.321806,57.321011,122.10,12,-1.00,-55.80,-46.35,10.50,0.00,0.00,0.00,15.32,46.57,5.92,0.00,0.00,0.00,0.00,3346.00,251835
25.321806,57.321011,120.00,12,-1.00,-57.15,-46.35,9.75,0.00,0.00,0.00,11.72,37.35,-9.89,0.00,0.00,0.00,0.00,3345.00,252084
25.321806,57.321011,120.00,12,-1.00,-56.70,-46.35,10.20,0.00,0.00,0.00,4.88,16.91,5.13,0.00,0.00,0.00,0.00,3357.00,252335
25.321806,57.321011,120.00,12,-1.00,-54.90,-45.90,10.50,0.00,0.00,0.00,2.93,13.06,5.68,0.00,0.00,0.00,0.00,3344.00,252589
25.321802,57.321014,120.00,12,-1.00,-55.80,-45.90,10.50,0.00,0.00,0.00,-0.49,2.87,8.36,0.00,0.00,0.00,0.00,3357.00,252842
25.321802,57.321014,120.20,12,-1.00,-55.35,-46.35,10.50,0.00,0.00,0.00,-3.42,10.25,11.11,0.00,0.00,0.00,0.00,3352.00,253097
25.321802,57.321014,120.20,12,-1.00,-57.30,-50.25,10.80,0.00,0.00,0.00,-5.31,-1.34,9.34,0.00,0.00,0.00,0.00,3338.00,253390
25.321802,57.321014,120.20,12,-1.00,-56.55,-45.90,10.35,0.00,0.00,0.00,10.86,33.51,-3.42,0.00,0.00,0.00,0.00,3330.00,253645
25.321808,57.321011,120.30,12,-1.00,-55.80,-46.35,10.50,0.00,0.00,0.00,7.32,18.92,2.87,0.00,0.00,0.00,0.00,3345.00,253901
25.321808,57.321011,120.30,12,-1.00,-55.65,-45.90,10.35,0.00,0.00,0.00,0.67,12.08,1.59,0.00,0.00,0.00,0.00,3350.00,254165
25.321808,57.321011,120.30,12,-1.00,-56.10,-45.90,10.65,0.00,0.00,0.00,-3.60,2.08,14.16,0.00,0.00,0.00,0.00,3356.00,254423
25.321808,57.321011,120.30,12,-1.00,-55.65,-46.05,9.90,0.00,0.00,0.00,-16.54,-9.52,23.13,0.00,0.00,0.00,0.00,3390.00,254685
25.321808,57.321014,120.30,12,-1.00,-56.25,-45.75,10.95,0.00,0.00,0.00,1.34,15.01,-0.31,0.00,0.00,0.00,0.00,3404.00,254947
25.321808,57.321014,120.30,12,-1.00,-56.40,-45.60,10.05,0.00,0.00,0.00,0.00,10.56,-4.52,0.00,0.00,0.00,0.00,3380.00,255213
25.321808,57.321014,120.30,12,-1.00,-57.00,-49.50,9.90,0.00,0.00,0.00,3.36,18.43,7.69,0.00,0.00,0.00,0.00,3378.00,255514
25.321808,57.321011,120.30,12,-1.00,-56.10,-45.60,10.50,0.00,0.00,0.00,1.40,12.63,5.98,0.00,0.00,0.00,0.00,3370.00,255773
25.321808,57.321011,120.30,12,-1.00,-55.80,-45.45,10.50,0.00,0.00,0.00,-1.46,7.08,4.27,0.00,0.00,0.00,0.00,3372.00,256039
25.321808,57.321011,120.30,12,-1.00,-56.10,-45.45,10.50,0.00,0.00,0.00,2.69,8.42,1.28,0.00,0.00,0.00,0.00,3370.00,256300
25.321808,57.321011,120.30,12,-1.00,-56.25,-45.45,10.65,0.00,0.00,0.00,-8.97,-4.39,3.54,0.00,0.00,0.00,0.00,3368.00,256565
25.321806,57.321011,120.30,12,120.41,-55.95,-45.00,10.05,0.00,0.00,0.00,5.74,11.41,-0.98,0.00,0.00,0.00,0.00,3358.00,256826
25.321806,57.321011,120.40,12,120.32,-55.35,-46.50,10.05,0.00,0.00,0.00,-3.91,2.87,9.89,0.00,0.00,0.00,0.00,3368.00,257096
25.321806,57.321011,120.40,12,120.24,-56.25,-44.85,10.35,0.00,0.00,0.00,1.65,18.55,6.71,0.00,0.00,0.00,0.00,3357.00,257362
25.321806,57.321011,120.40,12,120.26,-56.55,-50.10,10.80,0.00,0.00,0.00,-5.49,7.26,9.64,0.00,0.00,0.00,0.00,3373.00,257701
25.321802,57.321011,120.20,12,120.28,-56.10,-47.10,10.65,0.00,0.00,0.00,0.79,12.76,4.58,0.00,0.00,0.00,0.00,3365.00,257942
25.321802,57.321011,120.20,12,120.29,-56.10,-46.05,11.10,0.00,0.00,0.00,-0.24,14.04,7.32,0.00,0.00,0.00,0.00,3412.00,258183
25.321802,57.321011,120.20,12,120.29,-55.95,-45.60,10.35,0.00,0.00,0.00,-3.54,2.62,8.18,0.00,0.00,0.00,0.00,3368.00,258429
25.321802,57.321011,120.20,12,120.29,-56.25,-45.90,10.20,0.00,0.00,0.00,3.11,21.00,6.10,0.00,0.00,0.00,0.00,3280.00,258671
25.321800,57.321011,120.40,12,120.29,-56.10,-45.90,10.20,0.00,0.00,0.00,3.48,9.95,3.91,0.00,0.00,0.00,0.00,3274.00,258917
25.321800,57.321011,120.40,12,120.30,-56.10,-45.60,11.55,0.00,0.00,0.00,2.99,15.01,-9.46,0.00,0.00,0.00,0.00,3174.00,259162
25.321800,57.321011,120.40,12,-1.00,-56.10,-45.75,10.50,0.00,0.00,0.00,-2.99,9.16,7.93,0.00,0.00,0.00,0.00,3290.00,259413
25.321800,57.321011,120.40,12,120.31,-56.85,-46.05,10.65,0.00,0.00,0.00,-1.53,7.87,6.23,0.00,0.00,0.00,0.00,3409.00,259702
25.321798,57.321011,120.40,12,120.32,-56.70,-49.80,11.10,0.00,0.00,0.00,-1.95,14.28,13.85,0.00,0.00,0.00,0.00,3402.00,259950
25.321798,57.321011,120.30,12,120.32,-56.40,-45.90,10.35,0.00,0.00,0.00,-9.83,-11.54,7.51,0.00,0.00,0.00,0.00,3396.00,260205
25.321798,57.321011,120.30,12,-1.00,-56.55,-45.75,9.15,0.00,0.00,0.00,-17.88,-18.74,3.60,0.00,0.00,0.00,0.00,3364.00,260453
25.321798,57.321011,120.30,12,120.32,-55.95,-45.45,10.80,0.00,0.00,0.00,-6.77,0.85,5.31,0.00,0.00,0.00,0.00,3352.00,260701
25.321798,57.321014,120.10,12,120.32,-55.80,-46.05,9.90,0.00,0.00,0.00,3.30,19.23,-0.55,0.00,0.00,0.00,0.00,3364.00,260954
25.321798,57.321014,120.10,12,120.31,-55.50,-45.45,10.20,0.00,0.00,0.00,-2.62,7.75,10.07,0.00,0.00,0.00,0.00,3374.00,261205
25.321798,57.321014,120.10,12,120.30,-56.10,-46.50,10.20,0.00,0.00,0.00,1.65,9.77,4.15,0.00,0.00,0.00,0.00,3374.00,261456
25.321802,57.321011,120.10,12,120.29,-56.10,-46.05,10.95,0.00,0.00,0.00,0.61,9.22,3.72,0.00,0.00,0.00,0.00,3376.00,261754
25.321802,57.321011,119.80,12,120.28,-56.55,-45.75,10.65,0.00,0.00,0.00,2.44,17.88,11.35,0.00,0.00,0.00,0.00,3324.00,262011
25.321802,57.321011,119.80,12,120.26,-55.50,-46.20,10.35,0.00,0.00,0.00,-0.18,15.87,1.95,0.00,0.00,0.00,0.00,3279.00,262270
25.321802,57.321011,119.80,12,120.23,-55.95,-45.90,10.50,0.00,0.00,0.00,2.75,19.23,9.34,0.00,0.00,0.00,0.00,3248.00,262523
25.321804,57.321014,119.80,12,120.20,-55.50,-46.05,10.80,0.00,0.00,0.00,-2.14,5.31,5.43,0.00,0.00,0.00,0.00,3240.00,262787
25.321804,57.321014,119.10,12,120.17,-55.20,-46.65,10.95,0.00,0.00,0.00,2.26,11.78,2.01,0.00,0.00,0.00,0.00,3242.00,263046
25.321804,57.321014,119.10,12,120.11,-55.65,-45.75,10.05,0.00,0.00,0.00,0.55,11.60,6.84,0.00,0.00,0.00,0.00,3249.00,263305
25.321804,57.321014,119.10,12,120.06,-56.25,-45.75,10.95,0.00,0.00,0.00,7.75,32.41,42.60,0.00,0.00,0.00,0.00,3221.00,263568
25.321808,57.321014,118.80,12,120.00,-56.85,-45.75,10.80,0.00,0.00,0.00,-1.71,12.45,13.67,0.00,0.00,0.00,0.00,3222.00,263871
25.321808,57.321014,118.80,12,119.93,-57.30,-49.05,10.80,0.00,0.00,0.00,0.49,9.28,11.47,0.00,0.00,0.00,0.00,3236.00,264133
25.321808,57.321014,118.80,12,119.85,-56.70,-45.90,10.05,0.00,0.00,0.00,-4.82,12.94,5.92,0.00,0.00,0.00,0.00,3254.00,264399
25.321808,57.321014,118.80,12,119.77,-54.60,-45.45,11.10,0.00,0.00,0.00,31.86,26.79,35.16,0.00,0.00,0.00,0.00,3282.00,264663
25.321806,57.321014,118.80,12,119.69,-57.60,-45.60,11.10,0.00,0.00,0.00,-4.21,2.14,11.29,0.00,0.00,0.00,0.00,3425.00,264926
25.321806,57.321014,118.70,12,119.61,-56.70,-45.45,10.20,0.00,0.00,0.00,-1.10,9.03,5.86,0.00,0.00,0.00,0.00,3494.00,265190
25.321806,57.321014,118.70,12,119.53,-56.55,-45.45,10.20,0.00,0.00,0.00,-1.34,8.54,6.53,0.00,0.00,0.00,0.00,3153.00,265453
25.321806,57.321014,118.70,12,119.45,-55.05,-45.75,10.50,0.00,0.00,0.00,-4.88,14.89,15.81,0.00,0.00,0.00,0.00,3180.00,265718
25.321802,57.321014,118.70,12,119.32,-56.70,-44.70,11.10,0.00,0.00,0.00,0.73,14.53,6.77,0.00,0.00,0.00,0.00,3213.00,266024
25.321802,57.321014,118.70,12,119.24,-57.90,-49.20,11.25,0.00,0.00,0.00,-0.92,9.46,3.66,0.00,0.00,0.00,0.00,3214.00,266320
25.321802,57.321014,118.70,12,119.17,-57.30,-45.45,10.20,0.00,0.00,0.00,-0.43,9.03,6.71,0.00,0.00,0.00,0.00,3230.00,266560
25.321796,57.321011,118.70,12,119.09,-55.35,-44.40,11.40,0.00,0.00,0.00,1.77,12.88,3.42,0.00,0.00,0.00,0.00,3590.00,266804
25.321796,57.321011,118.70,12,119.02,-56.40,-45.00,10.80,0.00,0.00,0.00,-1.77,7.87,4.27,0.00,0.00,0.00,0.00,3630.00,267054
25.321796,57.321011,118.70,12,118.96,-56.70,-45.75,10.50,0.00,0.00,0.00,-0.98,9.95,4.27,0.00,0.00,0.00,0.00,3637.00,267303
25.321796,57.321011,118.70,12,118.91,-57.00,-45.45,10.95,0.00,0.00,0.00,-2.81,10.44,7.63,0.00,0.00,0.00,0.00,3634.00,267547
25.321796,57.321011,118.70,12,118.85,-55.35,-46.05,11.25,0.00,0.00,0.00,-5.86,5.92,14.71,0.00,0.00,0.00,0.00,3630.00,267793
25.321796,57.321011,118.90,12,118.79,-57.00,-45.60,10.35,0.00,0.00,0.00,-1.59,9.95,5.37,0.00,0.00,0.00,0.00,3634.00,268082
25.321796,57.321011,118.90,12,118.78,-56.70,-45.15,11.40,0.00,0.00,0.00,-1.22,12.33,3.91,0.00,0.00,0.00,0.00,3634.00,268328
25.321796,57.321011,118.90,12,118.77,-57.75,-49.50,11.55,0.00,0.00,0.00,0.12,8.54,4.64,0.00,0.00,0.00,0.00,3630.00,268574
25.321795,57.321011,118.90,12,118.76,-55.65,-46.05,11.55,0.00,0.00,0.00,2.14,18.37,2.99,0.00,0.00,0.00,0.00,3627.00,268826
25.321795,57.321011,119.80,12,-1.00,-55.35,-45.75,12.00,0.00,0.00,0.00,1.28,9.70,3.72,0.00,0.00,0.00,0.00,3629.00,269078
25.321795,57.321011,119.80,12,118.81,-57.90,-46.20,11.25,0.00,0.00,0.00,0.92,10.56,8.12,0.00,0.00,0.00,0.00,3632.00,269329
25.321795,57.321011,119.80,12,118.87,-56.55,-45.30,10.80,0.00,0.00,0.00,-0.06,9.95,7.20,0.00,0.00,0.00,0.00,3641.00,269580
25.321795,57.321011,119.80,12,118.92,-56.25,-46.05,11.40,0.00,0.00,0.00,0.00,11.29,5.80,0.00,0.00,0.00,0.00,3628.00,269832
25.321795,57.321014,119.80,12,118.97,-56.10,-45.75,11.55,0.00,0.00,0.00,-2.44,9.77,10.50,0.00,0.00,0.00,0.00,3637.00,270127
25.321795,57.321014,119.80,12,119.02,-56.55,-45.00,11.40,0.00,0.00,0.00,-0.67,10.01,5.68,0.00,0.00,0.00,0.00,3630.00,270379
25.321795,57.321014,119.80,12,119.07,-56.25,-44.70,10.65,0.00,0.00,0.00,-0.37,9.89,5.37,0.00,0.00,0.00,0.00,3636.00,270631
25.321796,57.321014,118.80,12,119.13,-56.70,-45.75,10.65,0.00,0.00,0.00,-1.40,11.60,5.43,0.00,0.00,0.00,0.00,3637.00,270888
25.321796,57.321014,118.80,12,119.13,-55.35,-45.45,11.40,0.00,0.00,0.00,-3.66,10.13,10.38,0.00,0.00,0.00,0.00,3628.00,271145
25.321796,57.321014,118.80,12,119.14,-55.80,-45.45,11.40,0.00,0.00,0.00,-0.61,7.26,6.47,0.00,0.00,0.00,0.00,3634.00,271406
25.321796,57.321014,118.80,12,119.14,-56.85,-45.60,10.95,0.00,0.00,0.00,-0.31,10.68,5.31,0.00,0.00,0.00,0.00,3638.00,271671
25.321796,57.321018,118.60,12,119.15,-56.40,-46.35,11.25,0.00,0.00,0.00,-0.98,11.47,5.86,0.00,0.00,0.00,0.00,3642.00,271930
25.321796,57.321018,118.60,12,119.14,-55.65,-45.60,12.15,0.00,0.00,0.00,-2.56,8.85,7.02,0.00,0.00,0.00,0.00,3634.00,272232
25.321796,57.321018,118.60,12,119.14,-56.55,-45.75,11.25,0.00,0.00,0.00,-1.34,8.24,9.03,0.00,0.00,0.00,0.00,3628.00,272488
25.321796,57.321018,118.60,12,119.13,-58.05,-48.90,10.95,0.00,0.00,0.00,1.40,9.52,5.31,0.00,0.00,0.00,0.00,3638.00,272746
25.321796,57.321018,118.60,12,119.13,-56.85,-45.60,11.10,0.00,0.00,0.00,1.34,10.31,3.91,0.00,0.00,0.00,0.00,3634.00,273011
25.321796,57.321018,118.60,12,119.12,-55.95,-45.30,11.40,0.00,0.00,0.00,-0.67,9.70,1.34,0.00,0.00,0.00,0.00,3640.00,273274
25.321796,57.321018,118.60,12,119.11,-56.40,-45.15,11.55,0.00,0.00,0.00,-0.37,6.53,5.55,0.00,0.00,0.00,0.00,3630.00,273538
25.321800,57.321018,118.60,12,119.09,-57.00,-45.60,11.70,0.00,0.00,0.00,0.61,9.95,5.92,0.00,0.00,0.00,0.00,3637.00,273803
25.321800,57.321018,118.40,12,119.08,-56.85,-45.00,11.40,0.00,0.00,0.00,-0.43,9.46,5.92,0.00,0.00,0.00,0.00,3326.00,274069
25.321800,57.321018,118.40,12,119.05,-55.80,-45.90,11.10,0.00,0.00,0.00,-0.12,10.56,3.85,0.00,0.00,0.00,0.00,3243.00,274407
25.321800,57.321018,118.40,12,118.94,-56.85,-45.45,11.55,0.00,0.00,0.00,-0.49,9.22,7.75,0.00,0.00,0.00,0.00,3281.00,274673
25.321798,57.321022,118.40,12,118.86,-57.15,-49.20,11.70,0.00,0.00,0.00,-1.59,9.46,6.47,0.00,0.00,0.00,0.00,3227.00,274970
25.321798,57.321022,118.40,12,118.79,-55.20,-45.75,11.70,0.00,0.00,0.00,1.95,13.49,7.20,0.00,0.00,0.00,0.00,3260.00,275215
25.321798,57.321022,118.40,12,118.72,-55.05,-45.75,12.00,0.00,0.00,0.00,1.95,10.19,3.60,0.00,0.00,0.00,0.00,3405.00,275461
25.321798,57.321022,118.40,12,118.64,-57.60,-45.45,10.65,0.00,0.00,0.00,0.31,9.03,3.60,0.00,0.00,0.00,0.00,3596.00,275707
25.321802,57.321022,116.90,12,118.57,-56.40,-46.05,10.80,0.00,0.00,0.00,-0.49,9.95,5.37,0.00,0.00,0.00,0.00,3595.00,275952
25.321802,57.321022,116.90,12,118.47,-56.85,-45.60,10.95,0.00,0.00,0.00,-2.20,9.34,5.62,0.00,0.00,0.00,0.00,3269.00,276203
25.321802,57.321022,116.90,12,118.37,-55.20,-45.75,11.85,0.00,0.00,0.00,2.08,8.61,-0.98,0.00,0.00,0.00,0.00,3247.00,276486
25.321802,57.321022,116.90,12,118.27,-57.30,-45.15,11.10,0.00,0.00,0.00,-0.55,11.23,4.39,0.00,0.00,0.00,0.00,3193.00,276729
25.321806,57.321018,117.00,12,118.17,-56.85,-45.15,11.10,0.00,0.00,0.00,0.85,13.67,8.79,0.00,0.00,0.00,0.00,3151.00,276975
25.321806,57.321018,117.00,12,118.08,-58.05,-49.05,10.80,0.00,0.00,0.00,-10.07,-1.71,5.13,0.00,0.00,0.00,0.00,3061.00,277225
25.321806,57.321018,117.00,12,-1.00,-55.35,-46.65,11.10,0.00,0.00,0.00,-2.44,14.28,14.71,0.00,0.00,0.00,0.00,2941.00,277475
25.321806,57.321018,117.00,12,117.95,-56.55,-45.75,11.25,0.00,0.00,0.00,-0.49,13.79,13.18,0.00,0.00,0.00,0.00,2976.00,277724
25.321806,57.321022,116.60,12,117.87,-55.65,-44.85,10.20,0.00,0.00,0.00,40.16,26.37,151.00,0.00,0.00,0.00,0.00,3027.00,277979
25.321806,57.321022,116.60,12,117.77,-49.65,-36.30,10.05,0.00,0.00,0.00,51.57,-53.41,472.90,0.00,0.00,0.00,0.00,3170.00,278230
25.321806,57.321022,116.60,12,117.67,-47.55,-36.60,12.75,0.00,0.00,0.00,57.19,142.33,8.06,0.00,0.00,0.00,0.00,3290.00,278516
25.321800,57.321022,116.60,12,117.57,-48.00,-35.10,14.70,0.00,0.00,0.00,-33.14,18.80,2.08,0.00,0.00,0.00,0.00,3296.00,278767
25.321800,57.321022,117.50,12,117.47,-49.20,-36.00,13.05,0.00,0.00,0.00,18.31,-106.81,-142.94,0.00,0.00,0.00,0.00,3253.00,279023
25.321800,57.321022,117.50,12,117.42,-52.20,-41.40,10.05,0.00,0.00,0.00,4.52,109.68,-166.26,0.00,0.00,0.00,0.00,3186.00,279279
25.321800,57.321022,117.50,12,117.37,-54.00,-44.55,11.85,0.00,0.00,0.00,-59.75,-96.98,36.87,0.00,0.00,0.00,0.00,3118.00,279537
25.321800,57.321022,117.50,12,117.32,-54.75,-44.10,11.10,0.00,0.00,0.00,-14.28,22.03,45.35,0.00,0.00,0.00,0.00,3090.00,279793
25.321804,57.321022,117.30,11,117.28,-54.30,-44.25,12.60,0.00,0.00,0.00,-118.71,-60.97,17.33,0.00,0.00,0.00,0.00,3289.00,280052
25.321804,57.321022,117.30,11,117.22,-50.55,-38.55,13.20,0.00,0.00,0.00,-45.35,-104.92,111.27,0.00,0.00,0.00,0.00,3332.00,280311
25.321804,57.321022,117.30,11,117.17,-50.85,-41.10,11.40,0.00,0.00,0.00,-26.61,82.15,7.14,0.00,0.00,0.00,0.00,3368.00,280609
25.321798,57.321026,117.10,10,117.12,-50.70,-39.60,12.15,0.00,0.00,0.00,-33.39,-37.23,6.53,0.00,0.00,0.00,0.00,3364.00,280869
25.321798,57.321026,117.10,10,117.05,-55.35,-43.95,11.85,0.00,0.00,0.00,117.49,53.83,-247.80,0.00,0.00,0.00,0.00,3328.00,281132
25.321798,57.321026,117.10,10,117.06,-58.95,-51.15,11.40,0.00,0.00,0.00,-15.32,-117.43,-7.81,0.00,0.00,0.00,0.00,3261.00,281389
25.321798,57.321026,117.10,10,117.07,-54.00,-45.00,9.90,0.00,0.00,0.00,-109.62,136.29,121.70,0.00,0.00,0.00,0.00,3062.00,281650
25.321787,57.321030,117.60,12,117.08,-55.50,-46.20,10.35,0.00,0.00,0.00,-6.29,-18.86,-8.85,0.00,0.00,0.00,0.00,3037.00,281914
25.321787,57.321030,117.60,12,117.12,-56.25,-46.05,11.10,0.00,0.00,0.00,-3.72,12.08,13.06,0.00,0.00,0.00,0.00,3109.00,282183
25.321787,57.321030,117.60,12,117.15,-55.95,-45.75,10.65,0.00,0.00,0.00,-1.34,8.61,7.14,0.00,0.00,0.00,0.00,3210.00,282446
25.321772,57.321030,117.60,12,117.18,-55.05,-45.45,10.50,0.00,0.00,0.00,0.18,12.08,6.90,0.00,0.00,0.00,0.00,3634.00,282747
25.321772,57.321030,118.30,11,117.22,-54.90,-45.75,10.95,0.00,0.00,0.00,-0.92,6.35,3.17,0.00,0.00,0.00,0.00,3624.00,283013
25.321772,57.321030,118.30,11,117.31,-56.85,-45.30,9.90,0.00,0.00,0.00,-0.24,10.80,7.08,0.00,0.00,0.00,0.00,3249.00,283308
25.321772,57.321030,118.30,11,117.39,-57.45,-48.45,11.25,0.00,0.00,0.00,-0.73,11.41,7.81,0.00,0.00,0.00,0.00,3460.00,283549
25.321777,57.321033,118.30,11,117.48,-55.95,-45.30,11.55,0.00,0.00,0.00,-1.34,11.29,6.29,0.00,0.00,0.00,0.00,3642.00,283795
25.321777,57.321033,118.30,11,117.57,-54.45,-45.75,11.55,0.00,0.00,0.00,-2.20,10.44,11.23,0.00,0.00,0.00,0.00,3640.00,284042
25.321777,57.321033,118.30,11,117.62,-55.20,-45.60,10.65,0.00,0.00,0.00,-1.28,11.29,8.61,0.00,0.00,0.00,0.00,3646.00,284288
25.321777,57.321033,118.30,11,117.66,-55.20,-45.75,10.05,0.00,0.00,0.00,1.10,11.90,7.32,0.00,0.00,0.00,0.00,3649.00,284540
25.321777,57.321033,118.30,11,117.70,-55.80,-45.15,11.10,0.00,0.00,0.00,-1.40,12.33,6.47,0.00,0.00,0.00,0.00,3644.00,284829
25.321785,57.321033,117.20,12,117.74,-56.85,-45.15,10.50,0.00,0.00,0.00,0.73,11.41,5.92,0.00,0.00,0.00,0.00,3641.00,285075
25.321785,57.321033,117.20,12,117.74,-56.10,-45.60,12.00,0.00,0.00,0.00,-0.61,9.52,4.88,0.00,0.00,0.00,0.00,3645.00,285320
25.321785,57.321033,117.20,12,117.73,-56.25,-44.85,10.65,0.00,0.00,0.00,-1.65,9.89,7.45,0.00,0.00,0.00,0.00,3648.00,285564
25.321795,57.321033,117.20,12,-1.00,-57.90,-49.20,11.10,0.00,0.00,0.00,-2.56,9.22,7.81,0.00,0.00,0.00,0.00,3649.00,285814
25.321795,57.321033,116.20,12,117.70,-56.40,-45.45,10.95,0.00,0.00,0.00,-2.14,10.50,4.70,0.00,0.00,0.00,0.00,3644.00,286067
25.321795,57.321033,116.20,12,117.66,-56.85,-45.15,10.20,0.00,0.00,0.00,-1.16,8.91,6.10,0.00,0.00,0.00,0.00,3646.00,286321
25.321795,57.321033,116.20,12,117.61,-57.30,-45.15,10.80,0.00,0.00,0.00,-1.34,10.01,5.98,0.00,0.00,0.00,0.00,3646.00,286571
25.321800,57.321033,116.00,12,117.56,-55.50,-45.75,10.50,0.00,0.00,0.00,-2.38,9.28,6.59,0.00,0.00,0.00,0.00,3646.00,286858
25.321800,57.321033,116.00,12,117.51,-56.85,-45.30,10.65,0.00,0.00,0.00,-0.98,7.81,7.32,0.00,0.00,0.00,0.00,3643.00,287112
25.321800,57.321033,116.00,12,117.43,-56.25,-45.75,10.35,0.00,0.00,0.00,-0.55,10.38,6.59,0.00,0.00,0.00,0.00,3640.00,287362
25.321800,57.321033,116.00,12,117.35,-56.85,-45.45,10.35,0.00,0.00,0.00,-0.49,8.73,5.92,0.00,0.00,0.00,0.00,3642.00,287616
25.321804,57.321033,115.90,12,117.27,-56.85,-45.15,10.65,0.00,0.00,0.00,-1.40,10.38,7.20,0.00,0.00,0.00,0.00,3650.00,287871
25.321804,57.321033,115.90,12,117.18,-56.55,-45.30,10.20,0.00,0.00,0.00,-0.55,10.99,5.13,0.00,0.00,0.00,0.00,3644.00,288132
25.321804,57.321033,115.90,12,117.06,-56.25,-45.60,10.50,0.00,0.00,0.00,-1.04,10.25,8.54,0.00,0.00,0.00,0.00,3640.00,288387
25.321804,57.321033,115.90,12,116.94,-56.70,-44.55,9.75,0.00,0.00,0.00,-2.08,11.84,6.35,0.00,0.00,0.00,0.00,3644.00,288646
25.321810,57.321033,115.30,12,116.82,-57.00,-45.15,10.95,0.00,0.00,0.00,-0.43,8.85,6.71,0.00,0.00,0.00,0.00,3638.00,288944
25.321810,57.321033,115.30,12,116.68,-56.85,-44.40,10.65,0.00,0.00,0.00,-0.61,11.11,6.47,0.00,0.00,0.00,0.00,3646.00,289202
25.321810,57.321033,115.30,12,116.53,-56.70,-45.30,10.05,0.00,0.00,0.00,-0.85,9.70,7.51,0.00,0.00,0.00,0.00,3642.00,289462
25.321810,57.321033,115.30,12,116.38,-56.55,-44.85,10.20,0.00,0.00,0.00,-2.44,10.68,7.14,0.00,0.00,0.00,0.00,3640.00,289722
25.321819,57.321033,115.00,12,116.23,-57.30,-49.35,10.50,0.00,0.00,0.00,-0.31,10.68,7.14,0.00,0.00,0.00,0.00,3648.00,289984
25.321819,57.321033,115.00,12,116.06,-56.25,-45.30,9.75,0.00,0.00,0.00,-1.40,10.31,5.98,0.00,0.00,0.00,0.00,3645.00,290251
25.321819,57.321033,115.00,12,115.95,-56.40,-45.75,10.05,0.00,0.00,0.00,0.37,9.89,6.71,0.00,0.00,0.00,0.00,3641.00,290511
25.321821,57.321033,115.00,12,115.84,-57.45,-45.30,10.20,0.00,0.00,0.00,-0.06,9.34,5.74,0.00,0.00,0.00,0.00,3646.00,290775
25.321821,57.321033,115.00,12,115.73,-56.40,-45.60,10.95,0.00,0.00,0.00,0.24,8.85,7.39,0.00,0.00,0.00,0.00,3642.00,291078
25.321821,57.321033,115.00,12,115.59,-57.00,-44.55,11.10,0.00,0.00,0.00,-0.37,9.46,5.55,0.00,0.00,0.00,0.00,3640.00,291342
25.321821,57.321033,115.00,12,115.53,-56.85,-45.60,10.50,0.00,0.00,0.00,0.61,12.02,4.27,0.00,0.00,0.00,0.00,3646.00,291604
25.321823,57.321033,114.60,12,115.46,-56.70,-45.15,9.75,0.00,0.00,0.00,-0.61,8.54,6.41,0.00,0.00,0.00,0.00,3644.00,291897
25.321823,57.321033,114.60,12,115.39,-57.45,-48.75,10.50,0.00,0.00,0.00,-1.10,8.54,5.98,0.00,0.00,0.00,0.00,3643.00,292137
25.321823,57.321033,114.60,12,115.32,-56.40,-45.30,10.95,0.00,0.00,0.00,-0.85,9.40,8.18,0.00,0.00,0.00,0.00,3641.00,292383
25.321823,57.321033,114.60,12,115.24,-56.40,-45.90,10.65,0.00,0.00,0.00,-1.89,10.25,5.62,0.00,0.00,0.00,0.00,3644.00,292630
25.321825,57.321030,114.50,12,115.17,-55.95,-45.60,10.95,0.00,0.00,0.00,-1.65,9.77,7.69,0.00,0.00,0.00,0.00,3649.00,292879
25.321825,57.321030,114.50,12,115.09,-57.30,-45.60,10.80,0.00,0.00,0.00,-0.37,9.16,7.39,0.00,0.00,0.00,0.00,3646.00,293164
25.321825,57.321030,114.50,12,115.02,-57.45,-44.25,11.55,0.00,0.00,0.00,-0.55,9.64,5.00,0.00,0.00,0.00,0.00,3650.00,293409
25.321825,57.321030,114.50,12,114.95,-56.55,-44.70,10.35,0.00,0.00,0.00,-1.89,10.19,8.30,0.00,0.00,0.00,0.00,3648.00,293655
25.321825,57.321033,114.10,12,114.87,-56.70,-45.30,10.80,0.00,0.00,0.00,0.12,10.38,5.80,0.00,0.00,0.00,0.00,3648.00,293903
25.321825,57.321033,114.10,12,-1.00,-56.70,-45.60,10.95,0.00,0.00,0.00,-2.87,8.91,5.25,0.00,0.00,0.00,0.00,3650.00,294156
25.321825,57.321033,114.10,12,114.78,-58.05,-49.50,11.10,0.00,0.00,0.00,-0.98,9.58,6.90,0.00,0.00,0.00,0.00,3644.00,294412
25.321825,57.321033,114.10,12,114.72,-56.40,-45.60,11.25,0.00,0.00,0.00,-1.28,10.62,6.90,0.00,0.00,0.00,0.00,3644.00,294662
25.321825,57.321033,114.10,12,114.66,-56.40,-46.05,10.65,0.00,0.00,0.00,-0.31,9.22,5.92,0.00,0.00,0.00,0.00,3640.00,294913
25.321825,57.321033,113.80,12,114.60,-57.15,-45.00,10.80,0.00,0.00,0.00,0.55,12.39,6.77,0.00,0.00,0.00,0.00,3644.00,295203
25.321825,57.321033,113.80,12,114.53,-55.50,-44.85,10.35,0.00,0.00,0.00,0.18,10.80,6.41,0.00,0.00,0.00,0.00,3649.00,295454
25.321825,57.321033,113.80,12,114.47,-56.70,-45.30,10.95,0.00,0.00,0.00,-0.85,10.44,5.49,0.00,0.00,0.00,0.00,3646.00,295704
25.321829,57.321033,113.80,12,114.41,-56.55,-45.45,10.95,0.00,0.00,0.00,-0.37,10.50,7.69,0.00,0.00,0.00,0.00,3645.00,295956
25.321829,57.321033,113.80,12,114.35,-55.95,-44.70,10.20,0.00,0.00,0.00,-1.34,11.78,9.16,0.00,0.00,0.00,0.00,3642.00,296214
25.321829,57.321033,113.80,12,114.29,-56.25,-45.30,11.25,0.00,0.00,0.00,0.18,8.61,3.91,0.00,0.00,0.00,0.00,3648.00,296464
25.321829,57.321033,113.80,12,114.24,-57.60,-49.20,11.10,0.00,0.00,0.00,-2.50,9.77,7.45,0.00,0.00,0.00,0.00,3646.00,296719
25.321831,57.321033,113.40,12,114.18,-56.70,-46.05,10.95,0.00,0.00,0.00,-1.10,10.01,6.41,0.00,0.00,0.00,0.00,3645.00,296983
25.321831,57.321033,113.40,12,114.12,-55.80,-46.50,10.95,0.00,0.00,0.00,-1.10,9.89,6.53,0.00,0.00,0.00,0.00,3646.00,297275
25.321831,57.321033,113.40,12,114.06,-56.25,-44.70,10.65,0.00,0.00,0.00,0.98,11.17,5.55,0.00,0.00,0.00,0.00,3649.00,297533
25.321831,57.321030,113.40,12,113.99,-57.45,-44.70,10.05,0.00,0.00,0.00,0.67,10.74,6.65,0.00,0.00,0.00,0.00,3638.00,297794
25.321831,57.321030,113.40,12,113.93,-56.40,-45.45,10.95,0.00,0.00,0.00,-0.37,8.67,4.64,0.00,0.00,0.00,0.00,3648.00,298060
25.321831,57.321030,113.40,12,113.88,-56.25,-45.30,10.65,0.00,0.00,0.00,-0.61,8.06,4.58,0.00,0.00,0.00,0.00,3646.00,298321
25.321831,57.321030,113.40,12,113.82,-55.65,-45.60,11.55,0.00,0.00,0.00,-1.22,9.46,7.02,0.00,0.00,0.00,0.00,3649.00,298587
25.321831,57.321030,113.40,12,113.77,-57.90,-49.05,10.95,0.00,0.00,0.00,-0.49,12.08,5.49,0.00,0.00,0.00,0.00,3649.00,298847
25.321831,57.321030,114.10,12,113.72,-56.55,-45.45,10.95,0.00,0.00,0.00,-1.10,9.77,7.14,0.00,0.00,0.00,0.00,3646.00,299116
25.321831,57.321030,114.10,12,113.72,-56.40,-45.45,10.20,0.00,0.00,0.00,1.28,8.97,6.53,0.00,0.00,0.00,0.00,3649.00,299419
25.321831,57.321030,114.10,12,113.69,-56.10,-45.90,9.90,0.00,0.00,0.00,-0.61,8.73,6.59,0.00,0.00,0.00,0.00,3638.00,299684
25.321833,57.321030,114.10,12,113.69,-56.10,-45.60,10.50,0.00,0.00,0.00,-0.92,10.86,5.37,0.00,0.00,0.00,0.00,3644.00,299949
25.321833,57.321030,114.10,12,113.69,-56.40,-44.85,10.65,0.00,0.00,0.00,-1.40,10.13,6.41,0.00,0.00,0.00,0.00,3645.00,300212
25.321833,57.321030,114.10,12,113.71,-56.70,-45.30,10.65,0.00,0.00,0.00,-1.65,10.86,7.14,0.00,0.00,0.00,0.00,3645.00,300511
25.321835,57.321030,114.10,12,113.73,-56.25,-45.75,10.95,0.00,0.00,0.00,-0.55,8.73,4.27,0.00,0.00,0.00,0.00,3644.00,300754
25.321835,57.321030,114.20,12,113.74,-57.75,-49.80,11.25,0.00,0.00,0.00,-0.79,10.13,5.49,0.00,0.00,0.00,0.00,3645.00,301000
25.321835,57.321030,114.20,12,113.76,-55.95,-45.30,10.65,0.00,0.00,0.00,-1.28,10.50,7.45,0.00,0.00,0.00,0.00,3648.00,301243
25.321835,57.321030,114.20,12,113.78,-56.40,-44.85,10.80,0.00,0.00,0.00,-0.12,10.56,8.54,0.00,0.00,0.00,0.00,3650.00,301522
25.321836,57.321026,114.20,12,113.81,-57.15,-45.45,10.05,0.00,0.00,0.00,-1.53,8.61,5.86,0.00,0.00,0.00,0.00,3646.00,301765
25.321836,57.321026,114.20,12,113.83,-56.10,-44.85,10.95,0.00,0.00,0.00,-0.92,10.07,4.82,0.00,0.00,0.00,0.00,3643.00,302017
25.321836,57.321026,114.20,12,113.87,-55.95,-45.00,10.50,0.00,0.00,0.00,-1.04,9.22,5.07,0.00,0.00,0.00,0.00,3644.00,302267
25.321836,57.321026,114.20,12,-1.00,-56.85,-45.15,10.20,0.00,0.00,0.00,-1.77,8.48,5.19,0.00,0.00,0.00,0.00,3645.00,302523
25.321838,57.321022,114.20,12,113.92,-55.95,-45.30,10.50,0.00,0.00,0.00,-1.16,9.40,5.92,0.00,0.00,0.00,0.00,3648.00,302779
25.321838,57.321022,114.20,12,113.96,-55.95,-45.90,10.95,0.00,0.00,0.00,0.24,10.99,6.16,0.00,0.00,0.00,0.00,3638.00,303032
25.321838,57.321022,114.20,12,114.00,-57.45,-49.65,10.65,0.00,0.00,0.00,-0.24,12.88,5.74,0.00,0.00,0.00,0.00,3647.00,303282
25.321838,57.321022,114.20,12,114.04,-55.95,-45.45,10.50,0.00,0.00,0.00,-2.26,9.58,5.68,0.00,0.00,0.00,0.00,3640.00,303568
25.321838,57.321022,114.20,12,114.08,-56.40,-45.60,10.65,0.00,0.00,0.00,0.43,10.25,6.90,0.00,0.00,0.00,0.00,3640.00,303821
25.321838,57.321022,115.90,12,114.12,-56.70,-44.70,11.25,0.00,0.00,0.00,-0.73,10.80,6.35,0.00,0.00,0.00,0.00,3642.00,304077
25.321838,57.321022,115.90,12,114.25,-55.95,-45.90,10.50,0.00,0.00,0.00,-0.67,9.40,4.39,0.00,0.00,0.00,0.00,3646.00,304332
25.321838,57.321022,115.90,12,114.34,-57.00,-45.15,10.65,0.00,0.00,0.00,-1.22,10.13,5.31,0.00,0.00,0.00,0.00,3640.00,304586
25.321838,57.321022,115.90,12,114.43,-56.40,-45.30,11.55,0.00,0.00,0.00,-1.46,8.54,6.65,0.00,0.00,0.00,0.00,3640.00,304847
25.321840,57.321018,116.40,12,114.52,-56.25,-44.85,10.95,0.00,0.00,0.00,0.98,9.52,7.14,0.00,0.00,0.00,0.00,3643.00,305106
25.321840,57.321018,116.40,12,114.63,-57.90,-49.20,10.35,0.00,0.00,0.00,-1.34,8.67,6.29,0.00,0.00,0.00,0.00,3646.00,305363
25.321840,57.321018,116.40,12,114.75,-56.55,-45.45,11.40,0.00,0.00,0.00,-1.40,7.51,5.86,0.00,0.00,0.00,0.00,3644.00,305660
25.321840,57.321018,117.20,12,114.86,-56.70,-44.85,11.10,0.00,0.00,0.00,-3.42,11.84,7.81,0.00,0.00,0.00,0.00,3648.00,305915
25.321840,57.321018,117.20,12,115.02,-55.95,-45.15,10.80,0.00,0.00,0.00,-1.34,8.97,6.47,0.00,0.00,0.00,0.00,3644.00,306180
25.321840,57.321018,117.20,12,115.17,-56.40,-45.75,11.10,0.00,0.00,0.00,-0.73,7.63,7.14,0.00,0.00,0.00,0.00,3650.00,306437
25.321840,57.321018,117.20,12,115.32,-55.95,-45.75,10.05,0.00,0.00,0.00,-0.43,9.95,6.29,0.00,0.00,0.00,0.00,3638.00,306697
25.321838,57.321018,117.70,12,115.47,-56.25,-44.40,11.10,0.00,0.00,0.00,-1.53,9.64,6.65,0.00,0.00,0.00,0.00,3647.00,306959
25.321838,57.321018,117.70,12,115.64,-56.55,-45.30,11.70,0.00,0.00,0.00,-0.73,11.60,5.07,0.00,0.00,0.00,0.00,3650.00,307223
25.321838,57.321018,117.70,12,115.82,-57.45,-49.35,10.95,0.00,0.00,0.00,0.73,11.96,7.63,0.00,0.00,0.00,0.00,3645.00,307489
25.321835,57.321014,117.70,12,115.99,-56.70,-45.45,10.65,0.00,0.00,0.00,0.67,9.58,6.77,0.00,0.00,0.00,0.00,3649.00,307788
25.321835,57.321014,117.70,12,116.27,-57.30,-45.45,10.65,0.00,0.00,0.00,-0.55,10.56,6.84,0.00,0.00,0.00,0.00,3642.00,308055
25.321835,57.321014,117.70,12,116.46,-55.50,-44.70,10.65,0.00,0.00,0.00,0.18,10.93,6.53,0.00,0.00,0.00,0.00,3648.00,308317
25.321835,57.321014,117.70,12,116.64,-56.85,-45.00,10.95,0.00,0.00,0.00,-1.89,10.50,5.86,0.00,0.00,0.00,0.00,3640.00,308580
25.321835,57.321014,117.70,12,116.83,-56.70,-45.45,11.70,0.00,0.00,0.00,-0.43,9.52,7.32,0.00,0.00,0.00,0.00,3648.00,308850
25.321835,57.321014,118.70,12,117.01,-56.70,-45.45,10.65,0.00,0.00,0.00,0.00,12.63,9.34,0.00,0.00,0.00,0.00,3651.00,309148
25.321835,57.321014,118.70,12,117.16,-57.30,-45.75,10.05,0.00,0.00,0.00,-0.43,8.61,7.32,0.00,0.00,0.00,0.00,3650.00,309392
25.321835,57.321014,118.70,12,117.31,-57.60,-49.35,11.40,0.00,0.00,0.00,-0.43,11.90,5.86,0.00,0.00,0.00,0.00,3643.00,309634
25.321833,57.321014,118.70,12,117.45,-56.10,-45.75,11.10,0.00,0.00,0.00,-1.34,9.77,5.13,0.00,0.00,0.00,0.00,3642.00,309919
25.321833,57.321014,119.10,12,117.60,-56.25,-45.00,11.10,0.00,0.00,0.00,-1.10,9.40,5.55,0.00,0.00,0.00,0.00,3648.00,310161
25.321833,57.321014,119.10,12,117.74,-56.55,-45.00,9.90,0.00,0.00,0.00,0.24,9.70,6.84,0.00,0.00,0.00,0.00,3645.00,310406
25.321833,57.321014,119.10,12,117.88,-56.25,-44.85,11.10,0.00,0.00,0.00,-0.12,10.74,6.90,0.00,0.00,0.00,0.00,3644.00,310653
25.321835,57.321011,119.20,12,-1.00,-57.15,-45.75,10.80,0.00,0.00,0.00,0.61,10.25,6.65,0.00,0.00,0.00,0.00,3645.00,310905
25.321835,57.321011,119.20,12,118.08,-55.95,-45.15,11.25,0.00,0.00,0.00,-0.12,10.50,6.77,0.00,0.00,0.00,0.00,3638.00,311154
25.321835,57.321011,119.20,12,118.18,-56.25,-46.05,10.65,0.00,0.00,0.00,-1.95,11.54,8.79,0.00,0.00,0.00,0.00,3648.00,311401
25.321835,57.321011,119.20,12,118.28,-57.75,-45.60,10.80,0.00,0.00,0.00,-0.24,9.89,6.16,0.00,0.00,0.00,0.00,3650.00,311649
25.321836,57.321011,119.50,12,118.38,-57.45,-48.30,10.80,0.00,0.00,0.00,-1.40,10.01,6.96,0.00,0.00,0.00,0.00,3646.00,311935
25.321836,57.321011,119.50,12,118.50,-57.00,-45.90,11.25,0.00,0.00,0.00,-1.16,8.73,6.23,0.00,0.00,0.00,0.00,3648.00,312186
25.321836,57.321011,119.50,12,118.59,-56.10,-46.50,10.65,0.00,0.00,0.00,-0.73,7.45,5.49,0.00,0.00,0.00,0.00,3652.00,312433
25.321836,57.321011,119.50,12,118.68,-56.85,-45.00,10.95,0.00,0.00,0.00,-0.18,9.40,5.13,0.00,0.00,0.00,0.00,3645.00,312683
25.321838,57.321011,119.60,12,118.77,-56.10,-46.20,11.40,0.00,0.00,0.00,-1.53,11.47,4.39,0.00,0.00,0.00,0.00,3648.00,312938
25.321838,57.321011,119.60,12,118.86,-56.85,-45.15,10.80,0.00,0.00,0.00,-0.92,9.46,6.04,0.00,0.00,0.00,0.00,3644.00,313189
25.321838,57.321011,119.60,12,118.96,-56.25,-45.45,11.40,0.00,0.00,0.00,-0.49,10.56,6.53,0.00,0.00,0.00,0.00,3648.00,313445
25.321838,57.321011,119.60,12,119.06,-56.70,-44.85,11.70,0.00,0.00,0.00,0.06,10.80,7.63,0.00,0.00,0.00,0.00,3645.00,313704
25.321838,57.321011,119.60,12,119.15,-57.30,-49.95,11.55,0.00,0.00,0.00,-0.79,10.44,6.84,0.00,0.00,0.00,0.00,3643.00,314000
25.321838,57.321011,119.60,12,119.24,-56.85,-45.60,10.50,0.00,0.00,0.00,0.24,9.03,4.58,0.00,0.00,0.00,0.00,3640.00,314257
25.321838,57.321011,119.60,12,119.29,-56.70,-44.55,10.65,0.00,0.00,0.00,-1.04,10.38,5.92,0.00,0.00,0.00,0.00,3650.00,314520
25.321838,57.321011,119.60,12,119.34,-56.10,-45.45,10.35,0.00,0.00,0.00,-1.65,9.40,7.20,0.00,0.00,0.00,0.00,3648.00,314775
25.321838,57.321011,119.80,12,119.38,-55.80,-44.85,11.10,0.00,0.00,0.00,0.31,8.79,5.43,0.00,0.00,0.00,0.00,3645.00,315032
25.321838,57.321011,119.80,12,119.44,-57.00,-45.75,11.55,0.00,0.00,0.00,-0.49,9.40,5.98,0.00,0.00,0.00,0.00,3648.00,315293
25.321838,57.321011,119.80,12,119.47,-56.10,-45.15,10.95,0.00,0.00,0.00,-2.20,11.54,5.62,0.00,0.00,0.00,0.00,3646.00,315553
25.321836,57.321011,119.80,12,119.50,-56.10,-44.40,11.10,0.00,0.00,0.00,0.85,10.44,6.84,0.00,0.00,0.00,0.00,3640.00,315818
25.321836,57.321011,119.90,12,119.54,-57.60,-48.15,11.70,0.00,0.00,0.00,-1.83,10.86,5.92,0.00,0.00,0.00,0.00,3650.00,316114
25.321836,57.321011,119.90,12,119.57,-57.00,-45.45,11.10,0.00,0.00,0.00,-1.53,9.52,7.08,0.00,0.00,0.00,0.00,3644.00,316377
25.321836,57.321011,119.90,12,119.61,-56.25,-45.00,11.40,0.00,0.00,0.00,-0.61,8.79,7.14,0.00,0.00,0.00,0.00,3650.00,316637
25.321838,57.321011,119.60,12,119.64,-56.40,-45.90,10.65,0.00,0.00,0.00,-0.37,10.50,7.26,0.00,0.00,0.00,0.00,3652.00,316901
25.321838,57.321011,119.60,12,119.67,-55.20,-45.75,10.95,0.00,0.00,0.00,0.67,8.00,6.71,0.00,0.00,0.00,0.00,3648.00,317166
25.321838,57.321011,119.60,12,119.67,-56.25,-44.70,10.95,0.00,0.00,0.00,-1.71,8.97,6.10,0.00,0.00,0.00,0.00,3648.00,317439
25.321838,57.321011,119.60,12,119.68,-56.40,-45.15,10.65,0.00,0.00,0.00,-0.37,9.28,5.25,0.00,0.00,0.00,0.00,3648.00,317738
25.321838,57.321011,119.40,12,119.69,-56.85,-45.00,10.80,0.00,0.00,0.00,-1.04,9.46,7.51,0.00,0.00,0.00,0.00,3646.00,317983
25.321838,57.321011,119.40,12,119.68,-57.90,-48.15,10.80,0.00,0.00,0.00,0.18,11.11,4.52,0.00,0.00,0.00,0.00,3646.00,318270
25.321838,57.321011,119.40,12,119.67,-56.70,-44.85,10.35,0.00,0.00,0.00,0.06,10.38,5.62,0.00,0.00,0.00,0.00,3646.00,318516
25.321838,57.321011,119.40,12,119.66,-56.40,-45.15,11.10,0.00,0.00,0.00,-1.71,8.79,6.47,0.00,0.00,0.00,0.00,3641.00,318758
25.321838,57.321011,119.40,12,119.65,-56.55,-45.00,10.35,0.00,0.00,0.00,-1.46,11.11,6.10,0.00,0.00,0.00,0.00,3640.00,319009
25.321838,57.321011,119.40,12,119.64,-56.10,-45.15,11.25,0.00,0.00,0.00,-1.04,11.11,7.08,0.00,0.00,0.00,0.00,3649.00,319254
25.321838,57.321011,119.40,12,-1.00,-55.95,-44.40,10.80,0.00,0.00,0.00,-1.46,11.96,7.93,0.00,0.00,0.00,0.00,3640.00,319505
25.321838,57.321011,119.40,12,119.61,-56.55,-45.45,11.10,0.00,0.00,0.00,-1.89,8.91,7.02,0.00,0.00,0.00,0.00,3652.00,319752
25.321836,57.321011,119.20,12,119.60,-56.85,-45.30,10.80,0.00,0.00,0.00,-0.61,9.40,7.20,0.00,0.00,0.00,0.00,3650.00,320005
25.321836,57.321011,119.20,12,119.58,-56.55,-44.85,10.95,0.00,0.00,0.00,-1.71,9.83,5.98,0.00,0.00,0.00,0.00,3644.00,320289
25.321836,57.321011,119.20,12,119.56,-57.15,-49.50,11.25,0.00,0.00,0.00,-0.24,11.66,6.96,0.00,0.00,0.00,0.00,3642.00,320535
25.321835,57.321011,119.20,12,119.53,-56.70,-44.70,11.25,0.00,0.00,0.00,-1.53,8.24,3.97,0.00,0.00,0.00,0.00,3649.00,320784
25.321835,57.321011,119.10,12,119.49,-56.10,-45.45,11.55,0.00,0.00,0.00,-1.65,9.09,5.62,0.00,0.00,0.00,0.00,3653.00,321034
25.321835,57.321011,119.10,12,119.46,-56.10,-45.30,11.55,0.00,0.00,0.00,-2.26,10.86,5.55,0.00,0.00,0.00,0.00,3648.00,321290
25.321835,57.321011,119.10,12,119.42,-56.55,-45.45,11.40,0.00,0.00,0.00,-0.73,11.90,5.55,0.00,0.00,0.00,0.00,3649.00,321542
25.321833,57.321011,119.10,12,119.38,-56.70,-44.40,10.95,0.00,0.00,0.00,-1.95,11.41,6.10,0.00,0.00,0.00,0.00,3649.00,321796
25.321833,57.321011,119.30,12,119.34,-57.00,-45.45,10.20,0.00,0.00,0.00,0.67,9.46,4.46,0.00,0.00,0.00,0.00,3641.00,322050
25.321833,57.321011,119.30,12,119.32,-56.85,-45.75,11.40,0.00,0.00,0.00,-0.12,10.50,5.80,0.00,0.00,0.00,0.00,3644.00,322347
25.321833,57.321011,119.30,12,119.31,-56.10,-49.05,11.25,0.00,0.00,0.00,-0.37,10.62,6.90,0.00,0.00,0.00,0.00,3644.00,322600
25.321833,57.321007,119.20,12,119.29,-55.95,-45.15,11.40,0.00,0.00,0.00,-1.95,10.01,5.92,0.00,0.00,0.00,0.00,3651.00,322860
25.321833,57.321007,119.20,12,119.27,-55.95,-45.15,10.95,0.00,0.00,0.00,-0.12,10.19,5.31,0.00,0.00,0.00,0.00,3650.00,323123
25.321833,57.321007,119.20,12,119.26,-56.55,-46.20,11.25,0.00,0.00,0.00,-1.65,11.17,5.37,0.00,0.00,0.00,0.00,3652.00,323379
25.321833,57.321007,119.20,12,119.25,-55.95,-45.75,10.35,0.00,0.00,0.00,-0.43,9.03,7.08,0.00,0.00,0.00,0.00,3650.00,323636
25.321831,57.321007,119.20,12,119.24,-55.95,-45.90,11.25,0.00,0.00,0.00,-1.34,10.07,8.18,0.00,0.00,0.00,0.00,3650.00,323898
25.321831,57.321007,119.20,12,119.24,-55.95,-45.45,11.40,0.00,0.00,0.00,-1.10,10.68,5.31,0.00,0.00,0.00,0.00,3642.00,324159
25.321831,57.321007,119.20,12,119.22,-56.70,-44.85,10.50,0.00,0.00,0.00,-0.61,7.45,5.92,0.00,0.00,0.00,0.00,3643.00,324453
25.321831,57.321007,119.20,12,119.21,-57.30,-48.60,12.30,0.00,0.00,0.00,-2.32,10.31,5.98,0.00,0.00,0.00,0.00,3643.00,324719
25.321831,57.321007,119.20,12,119.20,-56.55,-45.60,10.95,0.00,0.00,0.00,-0.73,10.01,5.74,0.00,0.00,0.00,0.00,3644.00,324986
25.321831,57.321007,119.20,12,119.19,-56.70,-45.45,11.10,0.00,0.00,0.00,0.06,10.62,5.31,0.00,0.00,0.00,0.00,3651.00,325253
25.321831,57.321007,119.20,12,119.19,-56.85,-45.30,10.80,0.00,0.00,0.00,-2.44,10.19,4.82,0.00,0.00,0.00,0.00,3649.00,325515
25.321829,57.321007,119.20,12,119.19,-56.85,-45.60,10.80,0.00,0.00,0.00,-0.49,9.89,7.14,0.00,0.00,0.00,0.00,3645.00,325788
25.321829,57.321007,119.20,12,119.19,-57.15,-44.70,11.10,0.00,0.00,0.00,0.24,9.46,8.12,0.00,0.00,0.00,0.00,3640.00,326057
25.321829,57.321007,119.20,12,119.20,-55.50,-45.30,11.40,0.00,0.00,0.00,-0.43,8.36,5.92,0.00,0.00,0.00,0.00,3647.00,326359
25.321829,57.321007,119.20,12,119.21,-55.95,-45.45,11.25,0.00,0.00,0.00,-0.43,10.01,5.13,0.00,0.00,0.00,0.00,3648.00,326644
25.321829,57.321007,119.40,12,119.21,-57.15,-48.45,11.25,0.00,0.00,0.00,-2.38,8.97,5.98,0.00,0.00,0.00,0.00,3643.00,326890
25.321829,57.321007,119.40,12,119.23,-56.40,-45.60,11.10,0.00,0.00,0.00,-0.31,8.67,4.94,0.00,0.00,0.00,0.00,3645.00,327136
25.321829,57.321007,119.40,12,119.23,-56.55,-45.75,11.25,0.00,0.00,0.00,-2.26,8.42,7.87,0.00,0.00,0.00,0.00,3646.00,327380
25.321829,57.321007,119.40,12,119.24,-55.95,-45.30,11.25,0.00,0.00,0.00,1.16,11.11,5.74,0.00,0.00,0.00,0.00,3645.00,327623
25.321831,57.321007,119.10,12,119.24,-56.10,-45.00,10.65,0.00,0.00,0.00,-0.67,9.70,6.29,0.00,0.00,0.00,0.00,3648.00,327866
25.321831,57.321007,119.10,12,119.24,-56.85,-45.00,10.80,0.00,0.00,0.00,-1.10,9.46,4.15,0.00,0.00,0.00,0.00,3645.00,328114
25.321831,57.321007,119.10,12,-1.00,-56.25,-45.00,11.10,0.00,0.00,0.00,-0.06,10.99,6.96,0.00,0.00,0.00,0.00,3637.00,328360
25.321831,57.321007,119.10,12,119.23,-56.25,-45.60,11.55,0.00,0.00,0.00,-1.40,7.93,5.55,0.00,0.00,0.00,0.00,3644.00,328640
25.321831,57.321003,119.40,12,119.22,-56.40,-44.85,10.95,0.00,0.00,0.00,-0.43,10.31,6.53,0.00,0.00,0.00,0.00,3652.00,328895
25.321831,57.321003,119.40,12,-1.00,-57.30,-49.20,11.55,0.00,0.00,0.00,-0.06,10.01,6.59,0.00,0.00,0.00,0.00,3645.00,329143
25.321831,57.321003,119.40,12,119.24,-56.25,-45.15,10.35,0.00,0.00,0.00,0.92,10.74,6.47,0.00,0.00,0.00,0.00,3645.00,329397
25.321831,57.321003,119.40,12,119.25,-56.85,-45.00,11.25,0.00,0.00,0.00,0.24,8.79,7.02,0.00,0.00,0.00,0.00,3644.00,329653
25.321833,57.321003,119.40,12,119.26,-55.95,-44.85,11.85,0.00,0.00,0.00,0.31,10.74,4.64,0.00,0.00,0.00,0.00,3650.00,329909
25.321833,57.321003,119.30,12,119.27,-55.95,-45.15,12.00,0.00,0.00,0.00,0.00,9.77,7.87,0.00,0.00,0.00,0.00,3643.00,330164
25.321833,57.321003,119.30,12,119.28,-56.70,-45.45,11.10,0.00,0.00,0.00,-1.59,11.05,5.07,0.00,0.00,0.00,0.00,3642.00,330418
25.321833,57.321003,119.30,12,119.28,-56.40,-44.85,11.10,0.00,0.00,0.00,0.79,10.19,5.43,0.00,0.00,0.00,0.00,3642.00,330714
25.321835,57.321003,119.00,12,119.29,-56.85,-44.70,10.65,0.00,0.00,0.00,-0.73,11.35,7.63,0.00,0.00,0.00,0.00,3645.00,330969
25.321835,57.321003,119.00,12,119.28,-57.45,-48.00,11.85,0.00,0.00,0.00,0.31,7.14,4.52,0.00,0.00,0.00,0.00,3644.00,331223
25.321835,57.321003,119.00,12,119.26,-56.10,-45.60,10.95,0.00,0.00,0.00,-1.89,10.38,5.80,0.00,0.00,0.00,0.00,3648.00,331482
25.321835,57.321003,119.00,12,119.26,-56.40,-45.45,11.10,0.00,0.00,0.00,0.18,9.52,5.74,0.00,0.00,0.00,0.00,3644.00,331741
25.321835,57.321003,118.90,12,119.25,-56.10,-45.60,10.35,0.00,0.00,0.00,-1.89,10.01,7.81,0.00,0.00,0.00,0.00,3644.00,331999
25.321835,57.321003,118.90,12,119.22,-57.15,-44.70,10.95,0.00,0.00,0.00,0.31,10.13,6.84,0.00,0.00,0.00,0.00,3644.00,332256
25.321835,57.321003,118.90,12,119.19,-55.95,-45.00,10.65,0.00,0.00,0.00,-0.37,10.93,5.62,0.00,0.00,0.00,0.00,3648.00,332518
25.321836,57.321003,118.90,12,119.17,-55.95,-45.60,11.10,0.00,0.00,0.00,-0.31,8.12,7.02,0.00,0.00,0.00,0.00,3652.00,332814
25.321836,57.321003,118.60,12,119.14,-56.55,-45.15,10.95,0.00,0.00,0.00,-0.79,10.62,5.86,0.00,0.00,0.00,0.00,3641.00,333074
25.321836,57.321003,118.60,12,119.12,-57.15,-49.50,11.55,0.00,0.00,0.00,-1.40,10.25,5.86,0.00,0.00,0.00,0.00,3646.00,333337
25.321836,57.321003,118.60,12,119.10,-56.25,-46.05,10.80,0.00,0.00,0.00,0.43,9.95,5.55,0.00,0.00,0.00,0.00,3643.00,333601
25.321836,57.321003,118.40,12,119.07,-55.20,-45.75,10.95,0.00,0.00,0.00,-1.28,9.64,5.55,0.00,0.00,0.00,0.00,3643.00,333865
25.321836,57.321003,118.40,12,119.03,-55.35,-44.70,11.55,0.00,0.00,0.00,-1.34,8.24,6.84,0.00,0.00,0.00,0.00,3650.00,334137
25.321836,57.321003,118.40,12,118.99,-56.25,-45.75,10.65,0.00,0.00,0.00,-0.43,11.05,4.09,0.00,0.00,0.00,0.00,3644.00,334411
25.321836,57.321003,118.40,12,118.91,-57.15,-45.75,10.50,0.00,0.00,0.00,-0.18,8.73,5.37,0.00,0.00,0.00,0.00,3650.00,334677
25.321836,57.321003,118.40,12,118.86,-56.55,-44.70,10.95,0.00,0.00,0.00,-0.92,8.91,5.92,0.00,0.00,0.00,0.00,3648.00,335016
25.321836,57.321003,118.40,12,118.81,-56.25,-44.40,10.65,0.00,0.00,0.00,-0.85,10.86,5.55,0.00,0.00,0.00,0.00,3634.00,335257
25.321836,57.321003,118.40,12,118.76,-57.30,-49.20,11.55,0.00,0.00,0.00,0.43,11.05,8.30,0.00,0.00,0.00,0.00,3643.00,335500
25.321836,57.321007,118.40,12,118.71,-56.25,-45.00,11.85,0.00,0.00,0.00,-0.79,8.91,5.92,0.00,0.00,0.00,0.00,3640.00,335747
25.321836,57.321007,117.90,12,118.66,-56.40,-45.00,11.40,0.00,0.00,0.00,-1.16,10.07,4.21,0.00,0.00,0.00,0.00,3648.00,335995
25.321836,57.321007,117.90,12,118.61,-56.85,-45.15,11.70,0.00,0.00,0.00,-2.26,10.19,5.37,0.00,0.00,0.00,0.00,3642.00,336241
25.321836,57.321007,117.90,12,118.55,-56.10,-44.70,10.80,0.00,0.00,0.00,-1.83,10.93,7.57,0.00,0.00,0.00,0.00,3642.00,336487
25.321836,57.321007,117.90,12,118.49,-57.15,-45.30,11.25,0.00,0.00,0.00,0.37,7.26,7.32,0.00,0.00,0.00,0.00,3646.00,336733
25.321835,57.321007,117.70,12,-1.00,-56.55,-44.70,11.25,0.00,0.00,0.00,-0.73,10.13,4.15,0.00,0.00,0.00,0.00,3645.00,337016
25.321835,57.321007,117.70,12,118.37,-56.55,-44.55,11.70,0.00,0.00,0.00,-1.10,7.20,4.15,0.00,0.00,0.00,0.00,3646.00,337265
25.321835,57.321007,117.70,12,118.31,-56.25,-45.45,11.25,0.00,0.00,0.00,-1.46,9.64,5.00,0.00,0.00,0.00,0.00,3649.00,337510
25.321835,57.321007,117.70,12,-1.00,-58.05,-48.90,11.25,0.00,0.00,0.00,-1.40,9.40,4.88,0.00,0.00,0.00,0.00,3648.00,337761
25.321835,57.321007,117.70,12,118.22,-55.95,-44.55,10.95,0.00,0.00,0.00,-0.55,9.83,7.81,0.00,0.00,0.00,0.00,3644.00,338019
25.321835,57.321007,117.70,12,118.16,-56.40,-45.60,11.70,0.00,0.00,0.00,-1.10,8.12,6.90,0.00,0.00,0.00,0.00,3640.00,338275
25.321835,57.321007,117.70,12,118.11,-56.40,-45.45,11.25,0.00,0.00,0.00,-1.34,12.02,6.65,0.00,0.00,0.00,0.00,3645.00,338527
25.321835,57.321007,117.70,12,118.06,-56.55,-44.85,10.80,0.00,0.00,0.00,-1.28,11.84,6.53,0.00,0.00,0.00,0.00,3650.00,338784
25.321835,57.321007,117.40,12,118.02,-57.15,-44.10,10.95,0.00,0.00,0.00,-0.61,10.07,6.41,0.00,0.00,0.00,0.00,3646.00,339081
25.321835,57.321007,117.40,12,117.97,-56.25,-45.45,10.65,0.00,0.00,0.00,1.22,10.19,6.16,0.00,0.00,0.00,0.00,3651.00,339333
25.321835,57.321007,117.40,12,117.92,-56.55,-44.70,12.30,0.00,0.00,0.00,-0.43,9.64,5.13,0.00,0.00,0.00,0.00,3650.00,339587
25.321835,57.321007,117.40,12,117.87,-57.45,-48.75,11.55,0.00,0.00,0.00,0.24,9.95,7.20,0.00,0.00,0.00,0.00,3642.00,339847
25.321835,57.321007,117.40,12,117.82,-55.95,-45.75,11.10,0.00,0.00,0.00,0.24,12.15,5.13,0.00,0.00,0.00,0.00,3646.00,340109
25.321835,57.321007,117.40,12,117.77,-56.25,-45.60,10.95,0.00,0.00,0.00,-0.79,9.89,6.10,0.00,0.00,0.00,0.00,3645.00,340364
25.321835,57.321007,117.40,12,117.72,-57.00,-45.60,10.65,0.00,0.00,0.00,-0.43,10.07,5.19,0.00,0.00,0.00,0.00,3644.00,340622
25.321833,57.321007,117.20,12,117.67,-56.10,-45.00,11.85,0.00,0.00,0.00,-1.40,10.25,4.46,0.00,0.00,0.00,0.00,3649.00,340883
25.321833,57.321007,117.20,12,117.61,-57.00,-46.05,12.00,0.00,0.00,0.00,-1.71,9.64,6.90,0.00,0.00,0.00,0.00,3648.00,341177
25.321833,57.321007,117.20,12,117.57,-55.95,-45.30,11.70,0.00,0.00,0.00,-1.04,10.38,5.19,0.00,0.00,0.00,0.00,3642.00,341433
25.321833,57.321007,117.20,12,117.54,-57.00,-44.85,11.70,0.00,0.00,0.00,0.37,10.50,6.23,0.00,0.00,0.00,0.00,3644.00,341692
25.321833,57.321011,117.00,12,117.51,-57.60,-48.75,10.95,0.00,0.00,0.00,-1.65,9.03,7.45,0.00,0.00,0.00,0.00,3642.00,341953
25.321833,57.321011,117.00,12,117.46,-56.70,-44.70,10.65,0.00,0.00,0.00,-1.22,7.81,4.58,0.00,0.00,0.00,0.00,3648.00,342217
25.321833,57.321011,117.00,12,117.43,-56.40,-45.30,11.55,0.00,0.00,0.00,-0.18,12.02,6.04,0.00,0.00,0.00,0.00,3646.00,342478
25.321833,57.321011,117.00,12,117.39,-55.65,-45.45,12.00,0.00,0.00,0.00,-2.44,10.44,7.08,0.00,0.00,0.00,0.00,3649.00,342746
25.321833,57.321011,117.00,12,117.36,-56.70,-43.65,11.55,0.00,0.00,0.00,-0.49,9.28,7.45,0.00,0.00,0.00,0.00,3646.00,343014
25.321833,57.321011,117.00,12,117.32,-56.25,-45.30,11.85,0.00,0.00,0.00,-2.08,10.56,5.13,0.00,0.00,0.00,0.00,3646.00,343325
25.321833,57.321011,117.00,12,117.26,-55.80,-44.85,11.40,0.00,0.00,0.00,-2.99,9.58,7.51,0.00,0.00,0.00,0.00,3645.00,343621
25.321835,57.321011,117.10,12,117.23,-56.10,-44.85,12.15,0.00,0.00,0.00,-0.43,10.25,7.20,0.00,0.00,0.00,0.00,3651.00,343862
25.321835,57.321011,117.10,12,117.19,-56.70,-48.15,11.55,0.00,0.00,0.00,-0.06,9.16,4.64,0.00,0.00,0.00,0.00,3648.00,344106
25.321835,57.321011,117.10,12,117.18,-56.10,-44.85,10.80,0.00,0.00,0.00,0.18,8.73,5.86,0.00,0.00,0.00,0.00,3641.00,344356
25.321835,57.321011,117.10,12,117.16,-56.40,-45.15,11.25,0.00,0.00,0.00,-0.37,9.22,5.19,0.00,0.00,0.00,0.00,3646.00,344602
25.321835,57.321011,117.10,12,117.15,-56.10,-45.15,11.10,0.00,0.00,0.00,-0.79,10.07,8.00,0.00,0.00,0.00,0.00,3648.00,344848
25.321835,57.321011,117.30,12,117.13,-56.55,-44.25,12.00,0.00,0.00,0.00,0.73,9.22,6.10,0.00,0.00,0.00,0.00,3646.00,345097
25.321835,57.321011,117.30,12,-1.00,-57.30,-45.60,11.25,0.00,0.00,0.00,-1.53,7.93,4.76,0.00,0.00,0.00,0.00,3644.00,345378
25.321835,57.321011,117.30,12,117.12,-56.70,-45.15,11.55,0.00,0.00,0.00,-0.55,9.89,7.93,0.00,0.00,0.00,0.00,3650.00,345624
25.321835,57.321011,117.40,12,117.12,-56.25,-45.60,11.10,0.00,0.00,0.00,-1.10,10.80,7.08,0.00,0.00,0.00,0.00,3654.00,345875
25.321835,57.321011,117.40,12,-1.00,-57.15,-44.55,11.25,0.00,0.00,0.00,-1.34,9.77,5.62,0.00,0.00,0.00,0.00,3644.00,346127
25.321835,57.321011,117.40,12,117.14,-57.60,-49.05,11.85,0.00,0.00,0.00,-1.40,9.77,6.59,0.00,0.00,0.00,0.00,3643.00,346375
25.321835,57.321011,117.40,12,117.15,-56.10,-45.00,11.25,0.00,0.00,0.00,-0.79,9.89,6.04,0.00,0.00,0.00,0.00,3652.00,346634
25.321835,57.321011,117.70,12,117.16,-56.55,-45.00,11.40,0.00,0.00,0.00,0.37,9.22,7.20,0.00,0.00,0.00,0.00,3649.00,346891
25.321835,57.321011,117.70,12,117.18,-56.85,-45.00,10.95,0.00,0.00,0.00,0.24,10.07,5.31,0.00,0.00,0.00,0.00,3649.00,347145
25.321835,57.321011,117.70,12,117.22,-56.40,-44.85,11.55,0.00,0.00,0.00,-0.18,7.08,4.33,0.00,0.00,0.00,0.00,3642.00,347435
25.321835,57.321011,117.70,12,117.26,-56.40,-44.70,11.85,0.00,0.00,0.00,-1.65,9.09,7.51,0.00,0.00,0.00,0.00,3643.00,347685
25.321835,57.321011,117.80,12,117.29,-56.55,-45.60,12.00,0.00,0.00,0.00,-0.98,10.13,4.88,0.00,0.00,0.00,0.00,3648.00,347941
25.321835,57.321011,117.80,12,117.33,-56.55,-45.00,11.55,0.00,0.00,0.00,-0.92,9.28,4.33,0.00,0.00,0.00,0.00,3648.00,348199
25.321835,57.321011,117.80,12,117.37,-57.15,-47.85,11.70,0.00,0.00,0.00,-2.56,10.68,5.86,0.00,0.00,0.00,0.00,3644.00,348456
25.321835,57.321011,117.80,12,117.41,-56.85,-45.45,10.50,0.00,0.00,0.00,-0.31,9.70,5.43,0.00,0.00,0.00,0.00,3644.00,348713
25.321833,57.321011,117.80,12,117.45,-55.65,-45.60,11.40,0.00,0.00,0.00,-2.01,9.70,6.53,0.00,0.00,0.00,0.00,3645.00,348974
25.321833,57.321011,117.80,12,117.49,-55.80,-44.85,11.70,0.00,0.00,0.00,-0.61,10.93,7.02,0.00,0.00,0.00,0.00,3646.00,349234
25.321833,57.321011,117.80,12,117.52,-56.70,-45.30,11.55,0.00,0.00,0.00,-1.59,10.07,7.81,0.00,0.00,0.00,0.00,3642.00,349528
25.321833,57.321011,117.80,12,117.56,-56.40,-45.15,11.85,0.00,0.00,0.00,-1.16,10.74,5.62,0.00,0.00,0.00,0.00,3648.00,349790
25.321833,57.321014,117.90,12,117.59,-57.30,-45.15,12.00,0.00,0.00,0.00,-1.53,10.50,5.37,0.00,0.00,0.00,0.00,3652.00,350049
25.321833,57.321014,117.90,12,117.63,-57.15,-45.45,11.25,0.00,0.00,0.00,-1.46,12.45,7.75,0.00,0.00,0.00,0.00,3644.00,350312
25.321833,57.321014,117.90,12,117.66,-57.30,-48.45,11.70,0.00,0.00,0.00,0.37,8.30,7.32,0.00,0.00,0.00,0.00,3648.00,350571
25.321831,57.321014,117.90,12,117.69,-55.80,-45.30,11.85,0.00,0.00,0.00,-0.61,9.09,5.37,0.00,0.00,0.00,0.00,3648.00,350837
25.321831,57.321014,118.20,12,117.72,-56.40,-45.30,11.10,0.00,0.00,0.00,-0.49,10.25,5.62,0.00,0.00,0.00,0.00,3641.00,351103
25.321831,57.321014,118.20,12,117.76,-55.95,-45.15,11.10,0.00,0.00,0.00,1.28,9.95,7.45,0.00,0.00,0.00,0.00,3648.00,351367
25.321831,57.321014,118.20,12,117.80,-55.80,-44.70,11.85,0.00,0.00,0.00,-1.16,10.50,8.48,0.00,0.00,0.00,0.00,3650.00,351670
25.321831,57.321014,118.20,12,117.86,-56.40,-44.55,11.85,0.00,0.00,0.00,-1.04,8.18,6.84,0.00,0.00,0.00,0.00,3648.00,351939
25.321831,57.321014,118.20,12,117.89,-56.10,-45.00,11.70,0.00,0.00,0.00,0.43,9.46,6.35,0.00,0.00,0.00,0.00,3648.00,352238
25.321831,57.321014,118.20,12,117.92,-56.25,-44.85,11.25,0.00,0.00,0.00,1.28,10.31,5.07,0.00,0.00,0.00,0.00,3641.00,352477
25.321831,57.321014,118.20,12,117.94,-57.15,-49.20,11.85,0.00,0.00,0.00,0.06,11.17,5.92,0.00,0.00,0.00,0.00,3644.00,352721
25.321831,57.321014,118.50,12,117.97,-55.50,-45.15,10.95,0.00,0.00,0.00,0.31,9.34,4.58,0.00,0.00,0.00,0.00,3646.00,352969
25.321831,57.321014,118.50,12,118.01,-56.55,-45.15,11.25,0.00,0.00,0.00,-0.67,6.84,6.77,0.00,0.00,0.00,0.00,3650.00,353216
25.321831,57.321014,118.50,12,118.04,-56.55,-45.75,11.70,0.00,0.00,0.00,0.49,10.25,5.86,0.00,0.00,0.00,0.00,3646.00,353458
25.321831,57.321014,118.50,12,118.08,-56.40,-45.00,11.40,0.00,0.00,0.00,0.55,9.77,6.59,0.00,0.00,0.00,0.00,3644.00,353740
25.321829,57.321014,118.40,12,118.12,-55.95,-45.30,10.80,0.00,0.00,0.00,-0.98,10.44,5.07,0.00,0.00,0.00,0.00,3642.00,353985
25.321829,57.321014,118.40,12,118.15,-55.95,-45.30,11.85,0.00,0.00,0.00,-0.98,8.48,4.09,0.00,0.00,0.00,0.00,3648.00,354236
25.321829,57.321014,118.40,12,118.18,-56.25,-44.85,11.25,0.00,0.00,0.00,-0.73,9.64,6.53,0.00,0.00,0.00,0.00,3644.00,354492
25.321829,57.321014,118.40,12,-1.00,-56.55,-45.15,11.85,0.00,0.00,0.00,-1.40,9.40,4.21,0.00,0.00,0.00,0.00,3649.00,354747
25.321829,57.321014,118.40,12,118.22,-57.30,-48.45,12.00,0.00,0.00,0.00,-1.04,9.64,5.19,0.00,0.00,0.00,0.00,3644.00,354997
25.321829,57.321014,118.40,12,118.25,-56.70,-44.85,11.70,0.00,0.00,0.00,-2.20,7.39,6.53,0.00,0.00,0.00,0.00,3648.00,355254
25.321829,57.321014,118.40,12,118.27,-55.80,-44.70,11.55,0.00,0.00,0.00,-1.16,9.89,7.14,0.00,0.00,0.00,0.00,3651.00,355506
25.321827,57.321014,118.40,12,118.30,-55.80,-45.00,10.65,0.00,0.00,0.00,-0.43,10.74,6.90,0.00,0.00,0.00,0.00,3652.00,355800
25.321827,57.321014,118.40,12,118.32,-56.25,-45.45,10.95,0.00,0.00,0.00,-0.98,9.64,6.84,0.00,0.00,0.00,0.00,3645.00,356058
25.321827,57.321014,118.40,12,118.35,-55.95,-45.30,11.40,0.00,0.00,0.00,1.65,8.30,5.62,0.00,0.00,0.00,0.00,3645.00,356315
25.321827,57.321014,118.40,12,118.36,-55.95,-44.70,11.55,0.00,0.00,0.00,-0.24,7.20,5.74,0.00,0.00,0.00,0.00,3651.00,356566
25.321829,57.321014,118.40,12,118.37,-55.65,-45.60,11.55,0.00,0.00,0.00,-1.22,11.72,5.86,0.00,0.00,0.00,0.00,3647.00,356820
25.321829,57.321014,118.10,12,118.38,-57.60,-49.50,12.30,0.00,0.00,0.00,-0.85,10.74,4.76,0.00,0.00,0.00,0.00,3650.00,357080
25.321829,57.321014,118.10,12,118.38,-55.95,-45.75,11.55,0.00,0.00,0.00,0.49,10.25,5.25,0.00,0.00,0.00,0.00,3644.00,357339
25.321829,57.321014,118.10,12,118.37,-55.35,-45.60,12.00,0.00,0.00,0.00,-0.55,10.93,4.27,0.00,0.00,0.00,0.00,3635.00,357597
25.321829,57.321014,118.00,12,118.37,-55.65,-45.00,11.10,0.00,0.00,0.00,-2.69,7.69,6.84,0.00,0.00,0.00,0.00,3651.00,357889
25.321829,57.321014,118.00,12,118.36,-55.35,-44.55,11.70,0.00,0.00,0.00,0.31,9.46,7.87,0.00,0.00,0.00,0.00,3650.00,358151
25.321829,57.321014,118.00,12,118.33,-56.25,-45.60,11.55,0.00,0.00,0.00,-2.14,10.31,8.42,0.00,0.00,0.00,0.00,3644.00,358406
25.321829,57.321014,118.00,12,118.31,-56.10,-45.15,11.55,0.00,0.00,0.00,0.98,8.54,6.47,0.00,0.00,0.00,0.00,3643.00,358666
25.321831,57.321018,117.80,12,118.28,-56.40,-45.15,12.60,0.00,0.00,0.00,-3.72,8.54,5.55,0.00,0.00,0.00,0.00,3648.00,358935
25.321831,57.321018,117.80,12,118.25,-57.15,-49.20,12.30,0.00,0.00,0.00,0.00,9.70,5.37,0.00,0.00,0.00,0.00,3648.00,359194
25.321831,57.321018,117.80,12,118.22,-55.80,-45.00,12.00,0.00,0.00,0.00,0.00,9.34,4.70,0.00,0.00,0.00,0.00,3648.00,359461
25.321831,57.321018,117.80,12,118.19,-55.65,-44.55,10.95,0.00,0.00,0.00,-0.92,10.44,6.71,0.00,0.00,0.00,0.00,3647.00,359726
25.321833,57.321018,117.60,12,118.16,-56.40,-44.70,11.10,0.00,0.00,0.00,0.55,9.03,5.55,0.00,0.00,0.00,0.00,3651.00,360037
25.321833,57.321018,117.60,12,118.10,-56.40,-45.30,11.10,0.00,0.00,0.00,-1.28,9.40,5.98,0.00,0.00,0.00,0.00,3643.00,360303
25.321833,57.321018,117.60,12,118.06,-55.65,-44.85,11.25,0.00,0.00,0.00,-0.61,8.54,4.27,0.00,0.00,0.00,0.00,3646.00,360573
25.321833,57.321018,117.50,12,118.02,-55.80,-45.00,11.40,0.00,0.00,0.00,-1.46,10.99,5.62,0.00,0.00,0.00,0.00,3638.00,360871
25.321833,57.321018,117.50,12,117.97,-56.10,-45.00,10.65,0.00,0.00,0.00,-1.77,9.64,8.61,0.00,0.00,0.00,0.00,3652.00,361115
25.321833,57.321018,117.50,12,117.92,-57.60,-48.60,11.85,0.00,0.00,0.00,1.16,10.31,5.62,0.00,0.00,0.00,0.00,3642.00,361360
25.321833,57.321018,117.50,12,117.87,-55.80,-45.15,11.10,0.00,0.00,0.00,-0.49,10.50,5.43,0.00,0.00,0.00,0.00,3650.00,361604
25.321833,57.321018,117.50,12,117.83,-56.40,-44.70,11.85,0.00,0.00,0.00,-0.18,11.11,6.65,0.00,0.00,0.00,0.00,3650.00,361848
25.321833,57.321018,117.20,12,117.78,-56.25,-45.00,11.40,0.00,0.00,0.00,-1.28,9.46,8.48,0.00,0.00,0.00,0.00,3648.00,362127
25.321833,57.321018,117.20,12,117.73,-55.50,-45.00,11.55,0.00,0.00,0.00,-1.28,9.22,7.20,0.00,0.00,0.00,0.00,3649.00,362372
25.321833,57.321018,117.20,12,117.68,-56.25,-44.55,11.70,0.00,0.00,0.00,-0.43,9.28,6.10,0.00,0.00,0.00,0.00,3654.00,362618
25.321833,57.321022,116.70,12,117.64,-55.95,-45.00,12.00,0.00,0.00,0.00,-1.28,9.58,6.16,0.00,0.00,0.00,0.00,3642.00,362864
25.321833,57.321022,116.70,12,-1.00,-55.65,-45.75,10.95,0.00,0.00,0.00,-1.65,12.45,5.49,0.00,0.00,0.00,0.00,3643.00,363111
25.321833,57.321022,116.70,12,117.52,-56.10,-45.15,10.95,0.00,0.00,0.00,-1.59,8.24,7.75,0.00,0.00,0.00,0.00,3649.00,363357
25.321833,57.321022,116.70,12,117.46,-57.75,-49.20,12.45,0.00,0.00,0.00,-1.77,7.39,5.62,0.00,0.00,0.00,0.00,3648.00,363611
25.321833,57.321022,116.40,12,117.39,-56.85,-45.30,11.55,0.00,0.00,0.00,1.22,11.35,6.53,0.00,0.00,0.00,0.00,3646.00,363870
25.321833,57.321022,116.40,12,117.31,-56.10,-44.85,11.25,0.00,0.00,0.00,-2.32,10.07,3.72,0.00,0.00,0.00,0.00,3650.00,364172
25.321833,57.321022,116.40,12,117.24,-56.10,-45.30,11.10,0.00,0.00,0.00,0.92,9.03,5.86,0.00,0.00,0.00,0.00,3646.00,364433
25.321833,57.321022,116.40,12,117.17,-56.25,-44.70,11.25,0.00,0.00,0.00,-1.95,10.80,5.86,0.00,0.00,0.00,0.00,3648.00,364692
25.321833,57.321022,116.40,12,117.10,-56.10,-45.45,11.55,0.00,0.00,0.00,-0.85,9.28,5.00,0.00,0.00,0.00,0.00,3643.00,364947
25.321833,57.321022,116.20,12,117.03,-55.65,-45.45,11.40,0.00,0.00,0.00,-1.59,8.73,5.68,0.00,0.00,0.00,0.00,3650.00,365203
25.321833,57.321022,116.20,12,116.96,-57.00,-45.75,11.10,0.00,0.00,0.00,-1.04,9.52,5.55,0.00,0.00,0.00,0.00,3650.00,365463
25.321833,57.321022,116.20,12,116.89,-57.00,-48.75,11.40,0.00,0.00,0.00,-1.83,8.30,7.57,0.00,0.00,0.00,0.00,3644.00,365721
25.321833,57.321022,116.30,12,116.82,-55.80,-45.30,11.70,0.00,0.00,0.00,0.55,11.17,6.71,0.00,0.00,0.00,0.00,3651.00,365983
25.321833,57.321022,116.30,12,116.76,-56.40,-45.15,11.70,0.00,0.00,0.00,-0.37,10.93,5.92,0.00,0.00,0.00,0.00,3644.00,366279
25.321833,57.321022,116.30,12,116.71,-56.85,-45.45,11.10,0.00,0.00,0.00,0.92,12.33,6.65,0.00,0.00,0.00,0.00,3648.00,366542
25.321835,57.321022,116.30,12,116.65,-55.35,-45.30,11.25,0.00,0.00,0.00,0.24,10.86,6.41,0.00,0.00,0.00,0.00,3646.00,366803
25.321835,57.321022,116.30,12,116.59,-56.55,-45.45,12.15,0.00,0.00,0.00,0.06,10.80,5.43,0.00,0.00,0.00,0.00,3648.00,367065
25.321835,57.321022,116.30,12,116.53,-56.40,-44.55,11.25,0.00,0.00,0.00,-1.89,10.68,7.14,0.00,0.00,0.00,0.00,3648.00,367325
25.321835,57.321022,116.30,12,116.48,-55.95,-45.15,11.85,0.00,0.00,0.00,-1.22,9.77,4.70,0.00,0.00,0.00,0.00,3650.00,367585
25.321833,57.321022,116.30,12,116.44,-57.00,-49.05,11.40,0.00,0.00,0.00,-1.71,8.24,5.80,0.00,0.00,0.00,0.00,3643.00,367854
25.321833,57.321022,116.30,12,116.39,-56.40,-44.85,11.85,0.00,0.00,0.00,-0.92,8.91,6.23,0.00,0.00,0.00,0.00,3646.00,368119
25.321833,57.321022,116.30,12,116.35,-56.10,-45.15,11.55,0.00,0.00,0.00,-0.85,10.99,7.75,0.00,0.00,0.00,0.00,3649.00,368422
25.321833,57.321022,116.30,12,116.33,-55.65,-44.70,11.40,0.00,0.00,0.00,-0.24,8.67,6.47,0.00,0.00,0.00,0.00,3642.00,368683
25.321833,57.321022,116.40,12,116.31,-55.95,-45.75,11.55,0.00,0.00,0.00,-1.10,9.64,5.37,0.00,0.00,0.00,0.00,3649.00,368953
25.321833,57.321022,116.40,12,116.31,-55.65,-45.00,10.65,0.00,0.00,0.00,-3.05,7.45,6.71,0.00,0.00,0.00,0.00,3642.00,369225
25.321833,57.321022,116.40,12,116.31,-57.15,-45.45,11.10,0.00,0.00,0.00,-0.49,8.24,6.65,0.00,0.00,0.00,0.00,3648.00,369523
25.321833,57.321022,116.40,12,116.31,-57.00,-45.00,11.25,0.00,0.00,0.00,-1.34,9.52,4.09,0.00,0.00,0.00,0.00,3645.00,369766
25.321833,57.321022,116.50,12,116.31,-57.90,-48.30,11.85,0.00,0.00,0.00,-1.53,10.19,7.02,0.00,0.00,0.00,0.00,3642.00,370011
25.321833,57.321022,116.50,12,116.32,-56.55,-44.70,11.10,0.00,0.00,0.00,0.98,9.34,4.88,0.00,0.00,0.00,0.00,3648.00,370261
25.321833,57.321022,116.50,12,116.33,-56.25,-45.30,11.55,0.00,0.00,0.00,-0.67,7.81,6.16,0.00,0.00,0.00,0.00,3642.00,370538
25.321833,57.321022,116.50,12,116.35,-55.80,-45.45,11.85,0.00,0.00,0.00,-0.61,9.09,4.88,0.00,0.00,0.00,0.00,3642.00,370782
25.321833,57.321022,116.60,12,116.36,-56.85,-44.85,11.70,0.00,0.00,0.00,-0.85,9.89,6.47,0.00,0.00,0.00,0.00,3648.00,371028
25.321833,57.321022,116.60,12,116.38,-56.40,-45.00,11.40,0.00,0.00,0.00,-0.49,11.17,6.71,0.00,0.00,0.00,0.00,3648.00,371275
25.321833,57.321022,116.60,12,-1.00,-56.40,-44.70,11.55,0.00,0.00,0.00,0.18,10.07,9.03,0.00,0.00,0.00,0.00,3646.00,371520
25.321833,57.321022,116.60,12,116.41,-55.95,-45.00,11.40,0.00,0.00,0.00,-1.71,9.83,7.87,0.00,0.00,0.00,0.00,3642.00,371771
25.321833,57.321022,116.60,12,116.42,-56.40,-45.45,11.70,0.00,0.00,0.00,-0.24,9.28,5.86,0.00,0.00,0.00,0.00,3648.00,372025
25.321833,57.321022,116.60,12,116.44,-57.15,-49.35,11.40,0.00,0.00,0.00,0.92,11.11,8.48,0.00,0.00,0.00,0.00,3648.00,372279
25.321833,57.321022,116.60,12,116.45,-55.65,-45.00,11.40,0.00,0.00,0.00,-2.26,9.22,5.19,0.00,0.00,0.00,0.00,3653.00,372572
25.321833,57.321022,116.60,12,116.47,-56.10,-45.30,11.85,0.00,0.00,0.00,-1.04,10.19,6.41,0.00,0.00,0.00,0.00,3651.00,372821
25.321833,57.321022,116.90,12,116.48,-56.85,-45.15,11.85,0.00,0.00,0.00,-0.37,10.01,4.52,0.00,0.00,0.00,0.00,3649.00,373074
25.321833,57.321022,116.90,12,116.51,-56.25,-45.60,11.40,0.00,0.00,0.00,-0.06,11.17,6.04,0.00,0.00,0.00,0.00,3648.00,373327
25.321833,57.321022,116.90,12,116.54,-55.80,-44.55,10.80,0.00,0.00,0.00,-0.67,10.07,5.92,0.00,0.00,0.00,0.00,3648.00,373578
25.321833,57.321022,116.90,12,116.57,-56.40,-45.30,12.30,0.00,0.00,0.00,-1.10,8.67,6.47,0.00,0.00,0.00,0.00,3643.00,373833
25.321833,57.321022,117.20,12,116.60,-56.70,-44.85,11.40,0.00,0.00,0.00,-1.04,9.89,7.20,0.00,0.00,0.00,0.00,3640.00,374090
25.321833,57.321022,117.20,12,116.64,-57.30,-48.30,11.85,0.00,0.00,0.00,-1.40,9.52,5.80,0.00,0.00,0.00,0.00,3642.00,374345
25.321833,57.321022,117.20,12,116.68,-56.40,-44.85,11.55,0.00,0.00,0.00,0.49,8.42,6.23,0.00,0.00,0.00,0.00,3646.00,374643
25.321831,57.321022,117.20,12,116.72,-56.55,-44.55,11.55,0.00,0.00,0.00,-0.12,9.77,4.88,0.00,0.00,0.00,0.00,3644.00,374906
25.321831,57.321022,118.00,12,116.76,-55.80,-45.15,11.85,0.00,0.00,0.00,0.12,10.56,6.65,0.00,0.00,0.00,0.00,3648.00,375164
25.321831,57.321022,118.00,12,116.83,-56.10,-44.70,10.95,0.00,0.00,0.00,-1.71,9.70,9.22,0.00,0.00,0.00,0.00,3644.00,375423
25.321831,57.321022,118.00,12,116.91,-56.55,-45.00,11.40,0.00,0.00,0.00,-0.67,9.34,4.15,0.00,0.00,0.00,0.00,3646.00,375686
25.321829,57.321022,118.20,12,116.98,-56.40,-45.45,11.85,0.00,0.00,0.00,1.89,10.56,6.41,0.00,0.00,0.00,0.00,3644.00,375947
25.321829,57.321022,118.20,12,117.07,-56.40,-45.00,11.85,0.00,0.00,0.00,-0.24,10.25,5.00,0.00,0.00,0.00,0.00,3646.00,376207
25.321829,57.321022,118.20,12,117.15,-57.00,-48.45,12.00,0.00,0.00,0.00,-1.65,9.89,5.31,0.00,0.00,0.00,0.00,3643.00,376468
25.321829,57.321022,118.20,12,117.23,-56.25,-45.45,12.00,0.00,0.00,0.00,0.06,7.57,5.43,0.00,0.00,0.00,0.00,3646.00,376774
25.321829,57.321022,118.20,12,117.35,-55.95,-45.15,12.00,0.00,0.00,0.00,-1.65,8.61,6.29,0.00,0.00,0.00,0.00,3651.00,377042
25.321829,57.321022,118.20,12,117.43,-57.00,-44.70,11.70,0.00,0.00,0.00,0.00,9.70,6.35,0.00,0.00,0.00,0.00,3644.00,377303
25.321829,57.321022,118.20,12,117.52,-57.00,-45.45,11.55,0.00,0.00,0.00,-2.26,10.01,6.71,0.00,0.00,0.00,0.00,3649.00,377566
25.321827,57.321022,118.20,12,-1.00,-56.25,-45.45,12.00,0.00,0.00,0.00,-1.22,9.40,4.88,0.00,0.00,0.00,0.00,3646.00,377831
25.321827,57.321022,118.50,12,117.68,-56.70,-44.25,11.40,0.00,0.00,0.00,-1.77,10.86,7.32,0.00,0.00,0.00,0.00,3643.00,378129
25.321827,57.321022,118.50,12,117.77,-55.95,-45.60,11.70,0.00,0.00,0.00,-1.10,10.68,7.39,0.00,0.00,0.00,0.00,3644.00,378378
25.321827,57.321022,118.50,12,117.85,-57.60,-48.60,11.70,0.00,0.00,0.00,-1.59,10.25,5.13,0.00,0.00,0.00,0.00,3644.00,378624
25.321825,57.321022,118.90,12,117.94,-56.25,-45.00,11.55,0.00,0.00,0.00,-0.92,8.85,8.00,0.00,0.00,0.00,0.00,3642.00,378919
25.321825,57.321022,118.90,12,118.04,-55.95,-45.00,12.15,0.00,0.00,0.00,-1.28,10.68,4.64,0.00,0.00,0.00,0.00,3650.00,379165
25.321825,57.321022,118.90,12,118.13,-56.55,-44.55,11.10,0.00,0.00,0.00,0.31,9.58,7.69,0.00,0.00,0.00,0.00,3653.00,379409
25.321825,57.321022,118.90,12,118.22,-56.40,-45.45,11.70,0.00,0.00,0.00,-1.71,9.58,7.14,0.00,0.00,0.00,0.00,3648.00,379662
25.321823,57.321022,118.90,12,118.31,-56.25,-45.15,11.85,0.00,0.00,0.00,0.12,10.50,5.19,0.00,0.00,0.00,0.00,3646.00,379908
25.321823,57.321022,118.90,12,118.40,-55.95,-44.70,11.40,0.00,0.00,0.00,-1.10,10.56,6.29,0.00,0.00,0.00,0.00,3650.00,380159
25.321823,57.321022,118.90,12,-1.00,-55.80,-44.10,12.30,0.00,0.00,0.00,-0.98,8.06,7.63,0.00,0.00,0.00,0.00,3652.00,380406
25.321823,57.321022,118.90,12,118.47,-56.25,-44.70,11.85,0.00,0.00,0.00,-1.53,9.89,6.35,0.00,0.00,0.00,0.00,3650.00,380657
25.321821,57.321022,119.30,12,118.51,-56.85,-49.05,11.55,0.00,0.00,0.00,-2.50,9.09,5.74,0.00,0.00,0.00,0.00,3644.00,380948
25.321821,57.321022,119.30,12,118.60,-56.40,-44.70,11.70,0.00,0.00,0.00,-0.98,8.42,5.74,0.00,0.00,0.00,0.00,3648.00,381199
25.321821,57.321022,119.30,12,-1.00,-56.10,-45.15,12.00,0.00,0.00,0.00,0.98,8.91,6.23,0.00,0.00,0.00,0.00,3644.00,381445
25.321821,57.321022,119.30,12,118.69,-56.10,-45.30,12.00,0.00,0.00,0.00,0.49,10.62,7.26,0.00,0.00,0.00,0.00,3645.00,381694
25.321821,57.321022,119.50,12,118.75,-57.00,-45.60,11.85,0.00,0.00,0.00,-1.53,10.07,4.94,0.00,0.00,0.00,0.00,3652.00,381949
25.321821,57.321022,119.50,12,118.81,-56.40,-44.85,11.10,0.00,0.00,0.00,-0.06,10.80,5.74,0.00,0.00,0.00,0.00,3645.00,382203
25.321821,57.321022,119.50,12,118.88,-56.40,-45.15,12.30,0.00,0.00,0.00,0.92,8.06,4.27,0.00,0.00,0.00,0.00,3652.00,382458
25.321821,57.321022,119.50,12,118.94,-56.55,-44.10,12.00,0.00,0.00,0.00,0.37,8.67,7.32,0.00,0.00,0.00,0.00,3640.00,382711
25.321821,57.321022,119.50,12,119.01,-56.40,-46.20,11.85,0.00,0.00,0.00,0.00,10.44,8.12,0.00,0.00,0.00,0.00,3648.00,383015
25.321821,57.321022,119.50,12,119.07,-56.85,-45.75,12.15,0.00,0.00,0.00,-0.43,9.28,5.98,0.00,0.00,0.00,0.00,3651.00,383274
25.321821,57.321022,119.50,12,119.12,-55.80,-45.30,11.55,0.00,0.00,0.00,-0.18,9.95,5.07,0.00,0.00,0.00,0.00,3640.00,383530
25.321821,57.321018,119.50,12,119.17,-56.70,-45.15,11.55,0.00,0.00,0.00,0.18,10.99,6.77,0.00,0.00,0.00,0.00,3648.00,383794
25.321821,57.321018,120.00,12,119.22,-56.25,-45.00,11.10,0.00,0.00,0.00,-0.85,9.03,5.68,0.00,0.00,0.00,0.00,3651.00,384053
25.321821,57.321018,120.00,12,119.28,-56.10,-44.85,11.10,0.00,0.00,0.00,-2.32,8.36,7.20,0.00,0.00,0.00,0.00,3651.00,384314
25.321821,57.321018,120.00,12,119.33,-56.10,-45.15,11.10,0.00,0.00,0.00,-2.26,7.93,6.53,0.00,0.00,0.00,0.00,3648.00,384575
25.321821,57.321018,120.00,12,119.38,-56.70,-44.85,11.40,0.00,0.00,0.00,-1.71,9.46,5.62,0.00,0.00,0.00,0.00,3648.00,384836
25.321821,57.321018,120.00,12,119.44,-56.85,-48.75,12.00,0.00,0.00,0.00,-0.06,10.74,6.04,0.00,0.00,0.00,0.00,3648.00,385140
25.321821,57.321018,120.00,12,119.49,-56.40,-44.40,12.75,0.00,0.00,0.00,0.00,9.03,4.82,0.00,0.00,0.00,0.00,3644.00,385407
25.321821,57.321018,120.00,12,119.58,-55.95,-45.30,11.10,0.00,0.00,0.00,-0.43,9.22,4.82,0.00,0.00,0.00,0.00,3646.00,385672
25.321821,57.321018,120.40,12,119.64,-55.95,-45.30,11.40,0.00,0.00,0.00,-0.18,10.44,8.36,0.00,0.00,0.00,0.00,3652.00,385940
25.321821,57.321018,120.40,12,-1.00,-56.25,-44.70,12.30,0.00,0.00,0.00,-0.73,8.97,4.88,0.00,0.00,0.00,0.00,3646.00,386205
25.321821,57.321018,120.40,12,119.76,-57.00,-45.00,11.25,0.00,0.00,0.00,-0.24,10.38,6.96,0.00,0.00,0.00,0.00,3644.00,386476
25.321819,57.321018,120.40,12,119.82,-56.40,-45.00,11.25,0.00,0.00,0.00,-1.28,9.95,5.68,0.00,0.00,0.00,0.00,3648.00,386781
25.321819,57.321018,120.40,12,119.87,-56.10,-45.00,10.95,0.00,0.00,0.00,-2.87,7.08,6.29,0.00,0.00,0.00,0.00,3649.00,387031
25.321819,57.321018,120.40,12,119.92,-57.15,-49.35,11.40,0.00,0.00,0.00,0.00,9.64,8.12,0.00,0.00,0.00,0.00,3646.00,387314
25.321819,57.321018,120.40,12,119.97,-55.95,-45.30,11.25,0.00,0.00,0.00,0.06,9.40,6.16,0.00,0.00,0.00,0.00,3648.00,387559
25.321819,57.321018,120.40,12,120.02,-56.40,-45.00,12.00,0.00,0.00,0.00,-0.92,9.34,6.29,0.00,0.00,0.00,0.00,3654.00,387804
25.321819,57.321018,120.60,12,120.06,-56.70,-44.55,11.25,0.00,0.00,0.00,-1.22,8.36,3.05,0.00,0.00,0.00,0.00,3644.00,388050
25.321819,57.321018,120.60,12,120.12,-55.80,-45.15,10.80,0.00,0.00,0.00,-1.34,10.13,5.43,0.00,0.00,0.00,0.00,3652.00,388295
25.321819,57.321018,120.60,12,120.18,-56.40,-44.70,11.25,0.00,0.00,0.00,0.49,9.46,5.31,0.00,0.00,0.00,0.00,3652.00,388540
25.321819,57.321014,120.60,12,120.24,-55.65,-45.15,11.40,0.00,0.00,0.00,-0.55,7.75,7.32,0.00,0.00,0.00,0.00,3645.00,388788
25.321819,57.321014,120.70,12,-1.00,-56.70,-44.70,11.55,0.00,0.00,0.00,-1.34,10.01,5.55,0.00,0.00,0.00,0.00,3652.00,389037
25.321819,57.321014,120.70,12,120.32,-56.40,-44.70,11.55,0.00,0.00,0.00,-2.08,10.31,5.13,0.00,0.00,0.00,0.00,3648.00,389336
25.321819,57.321014,120.70,12,120.37,-56.70,-48.75,12.15,0.00,0.00,0.00,-2.44,11.96,3.48,0.00,0.00,0.00,0.00,3646.00,389584
25.321819,57.321014,120.70,12,120.41,-56.10,-45.15,11.10,0.00,0.00,0.00,-0.37,10.44,6.71,0.00,0.00,0.00,0.00,3654.00,389838
25.321823,57.321018,119.90,12,120.44,-55.95,-44.40,11.85,0.00,0.00,0.00,-2.38,11.35,4.82,0.00,0.00,0.00,0.00,3645.00,390094
25.321823,57.321018,119.90,12,-1.00,-55.95,-45.15,10.95,0.00,0.00,0.00,0.18,9.83,6.04,0.00,0.00,0.00,0.00,3651.00,390351
25.321823,57.321018,119.90,12,120.41,-55.80,-44.55,11.55,0.00,0.00,0.00,-0.92,10.44,5.68,0.00,0.00,0.00,0.00,3650.00,390602
25.321825,57.321014,119.90,12,120.40,-56.10,-44.70,11.55,0.00,0.00,0.00,-1.89,8.61,5.43,0.00,0.00,0.00,0.00,3651.00,390856
25.321825,57.321014,119.80,12,120.40,-55.95,-44.70,11.55,0.00,0.00,0.00,-1.28,8.67,5.68,0.00,0.00,0.00,0.00,3648.00,391114
25.321825,57.321014,119.80,12,120.37,-55.35,-45.30,11.85,0.00,0.00,0.00,-0.55,9.64,6.35,0.00,0.00,0.00,0.00,3652.00,391414
25.321825,57.321014,119.80,12,120.34,-57.45,-48.60,12.00,0.00,0.00,0.00,-2.20,9.83,6.53,0.00,0.00,0.00,0.00,3652.00,391669
25.321825,57.321014,119.70,12,120.31,-56.70,-45.30,11.85,0.00,0.00,0.00,-3.48,8.91,6.41,0.00,0.00,0.00,0.00,3643.00,391931
25.321825,57.321014,119.70,12,120.28,-55.65,-46.35,12.00,0.00,0.00,0.00,-1.65,9.95,7.57,0.00,0.00,0.00,0.00,3644.00,392190
25.321825,57.321014,119.70,12,120.24,-56.10,-45.90,12.00,0.00,0.00,0.00,-0.55,9.89,5.49,0.00,0.00,0.00,0.00,3653.00,392445
25.321825,57.321014,119.70,12,120.21,-56.70,-45.15,12.15,0.00,0.00,0.00,-1.28,10.01,7.20,0.00,0.00,0.00,0.00,3654.00,392703
25.321827,57.321018,119.30,12,120.17,-55.65,-45.45,10.95,0.00,0.00,0.00,-1.40,9.40,7.08,0.00,0.00,0.00,0.00,3649.00,392967
25.321827,57.321018,119.30,12,120.12,-56.40,-44.40,11.85,0.00,0.00,0.00,-1.95,9.70,6.59,0.00,0.00,0.00,0.00,3650.00,393229
25.321827,57.321018,119.30,12,120.05,-56.10,-45.60,12.60,0.00,0.00,0.00,-0.12,9.52,5.07,0.00,0.00,0.00,0.00,3651.00,393531
25.321829,57.321018,119.30,12,119.99,-56.70,-48.90,12.45,0.00,0.00,0.00,-1.77,9.22,5.62,0.00,0.00,0.00,0.00,3648.00,393792
25.321829,57.321018,119.30,12,119.88,-56.10,-45.90,11.70,0.00,0.00,0.00,-0.24,9.22,7.75,0.00,0.00,0.00,0.00,3648.00,394059
25.321829,57.321018,119.30,12,119.81,-56.85,-45.60,12.30,0.00,0.00,0.00,0.55,9.40,4.21,0.00,0.00,0.00,0.00,3650.00,394324
25.321829,57.321018,119.30,12,-1.00,-56.40,-45.30,12.00,0.00,0.00,0.00,-1.65,10.01,6.16,0.00,0.00,0.00,0.00,3654.00,394596
25.321831,57.321018,119.30,12,119.66,-55.80,-45.15,12.30,0.00,0.00,0.00,-0.85,8.48,6.16,0.00,0.00,0.00,0.00,3656.00,394871
25.321831,57.321018,118.60,12,119.59,-56.55,-45.00,11.85,0.00,0.00,0.00,-0.18,10.31,6.47,0.00,0.00,0.00,0.00,3644.00,395170
25.321831,57.321018,118.60,12,119.52,-55.35,-45.75,11.85,0.00,0.00,0.00,-0.12,9.22,5.00,0.00,0.00,0.00,0.00,3648.00,395413
25.321831,57.321018,118.60,12,119.45,-57.00,-45.30,11.40,0.00,0.00,0.00,0.73,8.67,6.04,0.00,0.00,0.00,0.00,3650.00,395699
25.321833,57.321018,118.50,12,119.38,-57.60,-48.75,11.55,0.00,0.00,0.00,-1.22,10.07,4.70,0.00,0.00,0.00,0.00,3644.00,395943
25.321833,57.321018,118.50,12,119.31,-56.10,-44.55,12.30,0.00,0.00,0.00,-0.98,8.24,5.92,0.00,0.00,0.00,0.00,3646.00,396191
25.321833,57.321018,118.50,12,119.24,-56.85,-45.75,11.55,0.00,0.00,0.00,-0.67,10.25,4.21,0.00,0.00,0.00,0.00,3650.00,396435
25.321833,57.321018,118.50,12,119.17,-56.70,-45.30,12.15,0.00,0.00,0.00,-1.22,10.07,5.98,0.00,0.00,0.00,0.00,3642.00,396681
25.321833,57.321018,118.40,12,119.11,-55.95,-44.70,12.15,0.00,0.00,0.00,-1.04,9.83,6.29,0.00,0.00,0.00,0.00,3643.00,396927
25.321833,57.321018,118.40,12,-1.00,-55.95,-45.45,11.70,0.00,0.00,0.00,-0.61,9.70,6.16,0.00,0.00,0.00,0.00,3645.00,397176
25.321833,57.321018,118.40,12,119.00,-56.25,-45.45,12.30,0.00,0.00,0.00,-2.08,8.54,5.19,0.00,0.00,0.00,0.00,3648.00,397426
25.321833,57.321018,118.40,12,118.94,-56.25,-45.15,11.40,0.00,0.00,0.00,-1.59,8.54,7.81,0.00,0.00,0.00,0.00,3646.00,397718
25.321835,57.321018,118.10,12,118.83,-56.40,-45.15,11.70,0.00,0.00,0.00,-1.46,10.01,5.00,0.00,0.00,0.00,0.00,3648.00,397967
25.321835,57.321018,118.10,12,-1.00,-57.15,-48.75,12.30,0.00,0.00,0.00,0.61,8.06,6.90,0.00,0.00,0.00,0.00,3646.00,398216
25.321835,57.321018,118.10,12,118.74,-56.10,-45.15,12.45,0.00,0.00,0.00,0.18,10.13,5.80,0.00,0.00,0.00,0.00,3652.00,398471
25.321835,57.321018,118.10,12,118.68,-56.40,-45.15,12.00,0.00,0.00,0.00,-0.55,10.86,6.59,0.00,0.00,0.00,0.00,3651.00,398726
25.321835,57.321022,117.70,12,118.62,-56.40,-45.00,11.85,0.00,0.00,0.00,-0.61,8.18,6.90,0.00,0.00,0.00,0.00,3652.00,398980
25.321835,57.321022,117.70,12,118.54,-55.95,-45.15,12.30,0.00,0.00,0.00,-1.34,8.79,6.47,0.00,0.00,0.00,0.00,3642.00,399238
25.321835,57.321022,117.70,12,118.45,-56.10,-45.15,11.70,0.00,0.00,0.00,0.43,9.28,5.19,0.00,0.00,0.00,0.00,3644.00,399498
25.321835,57.321022,117.70,12,118.37,-56.70,-44.40,12.00,0.00,0.00,0.00,0.73,9.58,6.77,0.00,0.00,0.00,0.00,3648.00,399794
25.321835,57.321022,117.50,12,118.29,-55.80,-45.15,11.85,0.00,0.00,0.00,-2.44,10.50,8.48,0.00,0.00,0.00,0.00,3650.00,400049
25.321835,57.321022,117.50,12,118.20,-57.75,-48.75,12.90,0.00,0.00,0.00,-1.65,10.44,5.00,0.00,0.00,0.00,0.00,3649.00,400307
25.321835,57.321022,117.50,12,118.15,-56.40,-45.15,12.15,0.00,0.00,0.00,0.06,8.00,6.65,0.00,0.00,0.00,0.00,3649.00,400567
25.321836,57.321022,117.50,12,118.09,-56.55,-45.60,11.10,0.00,0.00,0.00,0.12,8.85,5.00,0.00,0.00,0.00,0.00,3644.00,400823
25.321836,57.321022,117.30,12,118.04,-56.25,-44.85,12.15,0.00,0.00,0.00,-0.98,10.25,5.37,0.00,0.00,0.00,0.00,3646.00,401085
25.321836,57.321022,117.30,12,117.98,-56.25,-44.85,11.70,0.00,0.00,0.00,0.49,9.09,5.68,0.00,0.00,0.00,0.00,3649.00,401345
25.321836,57.321022,117.30,12,117.92,-56.40,-45.00,11.10,0.00,0.00,0.00,-1.34,10.68,5.19,0.00,0.00,0.00,0.00,3650.00,401604
25.321836,57.321022,116.90,12,117.86,-56.10,-44.70,12.00,0.00,0.00,0.00,0.55,10.01,4.94,0.00,0.00,0.00,0.00,3645.00,401904
25.321836,57.321022,116.90,12,117.78,-55.80,-45.15,12.45,0.00,0.00,0.00,0.24,8.67,8.61,0.00,0.00,0.00,0.00,3648.00,402165
25.321836,57.321022,116.90,12,117.70,-57.00,-47.70,12.00,0.00,0.00,0.00,-1.65,11.23,4.88,0.00,0.00,0.00,0.00,3645.00,402425
25.321836,57.321022,116.90,12,117.63,-55.65,-44.85,12.00,0.00,0.00,0.00,0.55,10.44,8.12,0.00,0.00,0.00,0.00,3646.00,402688
25.321836,57.321022,116.70,12,117.55,-56.10,-45.30,11.85,0.00,0.00,0.00,-1.77,10.62,5.31,0.00,0.00,0.00,0.00,3653.00,402952
25.321836,57.321022,116.70,12,117.47,-56.10,-45.90,12.00,0.00,0.00,0.00,-1.04,9.03,5.62,0.00,0.00,0.00,0.00,3653.00,403218
25.321836,57.321022,116.70,12,117.36,-56.25,-44.70,11.70,0.00,0.00,0.00,-0.73,9.95,5.86,0.00,0.00,0.00,0.00,3649.00,403483
25.321836,57.321022,116.70,12,117.29,-55.95,-45.75,12.15,0.00,0.00,0.00,0.18,8.48,6.16,0.00,0.00,0.00,0.00,3643.00,403782
25.321836,57.321022,116.20,12,117.22,-56.40,-44.70,11.85,0.00,0.00,0.00,1.40,9.40,5.92,0.00,0.00,0.00,0.00,3650.00,404067
25.321836,57.321022,116.20,12,117.14,-55.95,-44.10,11.85,0.00,0.00,0.00,0.61,9.16,7.26,0.00,0.00,0.00,0.00,3646.00,404312
25.321836,57.321022,116.20,12,117.06,-57.30,-48.90,12.30,0.00,0.00,0.00,-0.85,10.07,5.25,0.00,0.00,0.00,0.00,3649.00,404560
25.321836,57.321022,116.20,12,116.98,-56.25,-45.30,12.15,0.00,0.00,0.00,0.24,10.19,6.53,0.00,0.00,0.00,0.00,3643.00,404807
25.321835,57.321022,116.30,12,116.90,-56.25,-45.15,11.70,0.00,0.00,0.00,0.31,9.64,5.00,0.00,0.00,0.00,0.00,3650.00,405053
25.321835,57.321022,116.30,12,116.84,-56.55,-44.85,11.25,0.00,0.00,0.00,-0.12,8.85,4.21,0.00,0.00,0.00,0.00,3653.00,405298
25.321835,57.321022,116.30,12,-1.00,-55.80,-45.00,11.55,0.00,0.00,0.00,0.37,8.36,5.80,0.00,0.00,0.00,0.00,3648.00,405543
25.321835,57.321026,116.30,12,116.75,-56.55,-44.55,11.55,0.00,0.00,0.00,-2.81,9.40,6.04,0.00,0.00,0.00,0.00,3648.00,405791
25.321835,57.321026,116.30,12,116.69,-56.70,-44.85,12.45,0.00,0.00,0.00,-0.85,8.48,5.19,0.00,0.00,0.00,0.00,3652.00,406083
25.321835,57.321026,116.30,12,116.63,-56.55,-44.55,11.25,0.00,0.00,0.00,-1.34,7.39,7.14,0.00,0.00,0.00,0.00,3643.00,406331
25.321835,57.321026,116.30,12,116.58,-56.25,-45.15,11.85,0.00,0.00,0.00,0.61,10.74,7.75,0.00,0.00,0.00,0.00,3648.00,406578
25.321835,57.321026,116.30,12,116.53,-56.85,-49.05,12.60,0.00,0.00,0.00,-0.67,9.34,6.47,0.00,0.00,0.00,0.00,3649.00,406833
25.321835,57.321026,115.50,12,116.48,-57.45,-45.00,12.30,0.00,0.00,0.00,-2.62,9.95,4.64,0.00,0.00,0.00,0.00,3641.00,407090
25.321835,57.321026,115.50,12,116.41,-55.80,-45.75,11.10,0.00,0.00,0.00,0.55,8.06,6.47,0.00,0.00,0.00,0.00,3648.00,407340
25.321835,57.321026,115.50,12,116.34,-55.50,-44.25,11.85,0.00,0.00,0.00,1.77,8.12,4.82,0.00,0.00,0.00,0.00,3643.00,407591
25.321833,57.321026,115.50,12,116.27,-56.70,-45.15,11.85,0.00,0.00,0.00,0.49,10.01,4.58,0.00,0.00,0.00,0.00,3651.00,407845
25.321833,57.321026,115.40,12,116.20,-56.25,-45.00,11.85,0.00,0.00,0.00,1.10,9.77,5.98,0.00,0.00,0.00,0.00,3644.00,408145
25.321833,57.321026,115.40,12,116.14,-56.40,-44.70,11.25,0.00,0.00,0.00,-2.14,10.01,4.94,0.00,0.00,0.00,0.00,3649.00,408397
25.321833,57.321026,115.40,12,116.07,-55.50,-45.75,12.00,0.00,0.00,0.00,-0.61,12.39,7.51,0.00,0.00,0.00,0.00,3650.00,408655
25.321835,57.321026,115.10,12,116.00,-57.00,-48.00,11.40,0.00,0.00,0.00,0.06,8.18,4.94,0.00,0.00,0.00,0.00,3646.00,408911
25.321835,57.321026,115.10,12,115.93,-56.40,-45.45,11.70,0.00,0.00,0.00,-1.65,9.22,4.76,0.00,0.00,0.00,0.00,3650.00,409175
25.321835,57.321026,115.10,12,115.87,-56.70,-45.30,11.55,0.00,0.00,0.00,-0.31,8.85,6.77,0.00,0.00,0.00,0.00,3644.00,409436
25.321835,57.321026,115.10,12,115.82,-56.25,-44.70,12.30,0.00,0.00,0.00,-2.14,10.13,4.88,0.00,0.00,0.00,0.00,3648.00,409693
25.321835,57.321030,115.10,12,115.76,-56.55,-44.10,11.55,0.00,0.00,0.00,-0.37,9.40,6.77,0.00,0.00,0.00,0.00,3647.00,409955
25.321835,57.321030,115.10,12,115.71,-56.40,-44.85,11.40,0.00,0.00,0.00,0.12,10.68,5.49,0.00,0.00,0.00,0.00,3646.00,410256
25.321835,57.321030,115.10,12,115.65,-56.25,-45.30,11.55,0.00,0.00,0.00,-0.92,9.70,4.82,0.00,0.00,0.00,0.00,3650.00,410517
25.321835,57.321030,115.10,12,115.59,-56.55,-45.00,11.70,0.00,0.00,0.00,-0.55,10.07,6.71,0.00,0.00,0.00,0.00,3653.00,410775
25.321835,57.321030,115.10,12,115.53,-57.90,-49.05,12.60,0.00,0.00,0.00,-1.28,8.79,7.63,0.00,0.00,0.00,0.00,3650.00,411039
25.321835,57.321030,115.10,12,115.47,-56.10,-44.40,12.00,0.00,0.00,0.00,-0.06,9.58,7.39,0.00,0.00,0.00,0.00,3645.00,411304
25.321835,57.321030,115.10,12,115.41,-55.95,-44.40,12.45,0.00,0.00,0.00,-2.14,8.61,6.41,0.00,0.00,0.00,0.00,3654.00,411566
25.321835,57.321026,115.10,12,115.35,-56.70,-45.45,12.15,0.00,0.00,0.00,-0.98,9.40,5.55,0.00,0.00,0.00,0.00,3644.00,411833
25.321835,57.321026,115.00,12,115.29,-55.80,-45.30,11.85,0.00,0.00,0.00,-1.22,7.75,6.90,0.00,0.00,0.00,0.00,3652.00,412101
25.321835,57.321026,115.00,12,115.21,-56.55,-45.45,12.30,0.00,0.00,0.00,-1.46,10.62,6.71,0.00,0.00,0.00,0.00,3648.00,412439
25,0.00,-0.73,8.00,2.69,0.00,0.00,0.00,0.00,3642.00,412679
25.321836,57.321030,114.70,12,115.15,-56.55,-45.30,11.85,0.00,0.00,0.00,-0.55,10.80,7.39,0.00,0.00,0.00,0.00,3645.00,412923
25.321836,57.321030,114.70,12,115.11,-56.85,-48.30,11.40,0.00,0.00,0.00,2.87,8.97,2.99,0.00,0.00,0.00,0.00,3648.00,413166
25.321836,57.321030,114.70,12,115.07,-56.55,-44.85,11.70,0.00,0.00,0.00,-1.28,8.91,6.04,0.00,0.00,0.00,0.00,3645.00,413409
25.321836,57.321030,114.70,12,115.04,-55.95,-45.45,12.00,0.00,0.00,0.00,0.67,10.56,6.96,0.00,0.00,0.00,0.00,3636.00,413652
25.321838,57.321030,114.30,12,-1.00,-56.70,-45.60,12.00,0.00,0.00,0.00,-0.18,10.13,4.76,0.00,0.00,0.00,0.00,3650.00,413897
25.321838,57.321030,114.30,12,114.96,-56.10,-44.55,10.95,0.00,0.00,0.00,-1.16,8.00,2.87,0.00,0.00,0.00,0.00,3653.00,414147
25.321838,57.321030,114.30,12,114.92,-56.25,-45.15,11.85,0.00,0.00,0.00,-2.14,8.24,5.31,0.00,0.00,0.00,0.00,3654.00,414442
25.321838,57.321030,114.30,12,114.87,-56.40,-44.40,10.95,0.00,0.00,0.00,-1.04,8.00,7.69,0.00,0.00,0.00,0.00,3649.00,414689
25.321838,57.321030,114.30,12,-1.00,-56.25,-45.00,11.70,0.00,0.00,0.00,0.18,6.16,4.64,0.00,0.00,0.00,0.00,3644.00,414938
25.321838,57.321030,113.80,12,114.80,-56.70,-44.55,12.45,0.00,0.00,0.00,-1.04,8.97,3.48,0.00,0.00,0.00,0.00,3644.00,415191
25.321838,57.321030,113.80,12,114.74,-57.75,-48.90,13.05,0.00,0.00,0.00,-0.98,8.54,6.59,0.00,0.00,0.00,0.00,3648.00,415442
25.321838,57.321030,113.80,12,114.68,-55.95,-44.10,11.70,0.00,0.00,0.00,0.37,9.89,5.92,0.00,0.00,0.00,0.00,3642.00,415699
25.321838,57.321030,113.50,12,114.61,-55.95,-45.30,12.15,0.00,0.00,0.00,-2.38,9.40,4.88,0.00,0.00,0.00,0.00,3644.00,415956
25.321838,57.321030,113.50,12,114.53,-56.40,-44.85,12.30,0.00,0.00,0.00,-0.61,9.46,4.94,0.00,0.00,0.00,0.00,3651.00,416207
25.321838,57.321030,113.50,12,114.45,-55.95,-44.55,11.70,0.00,0.00,0.00,-0.85,11.78,7.26,0.00,0.00,0.00,0.00,3650.00,416500
25.321840,57.321033,113.50,12,114.37,-56.25,-45.15,11.70,0.00,0.00,0.00,-1.28,8.12,6.77,0.00,0.00,0.00,0.00,3651.00,416755
25.321840,57.321033,112.90,12,114.29,-56.25,-45.00,12.30,0.00,0.00,0.00,-0.92,9.40,7.02,0.00,0.00,0.00,0.00,3653.00,417010
25.321840,57.321033,112.90,12,114.18,-56.10,-45.15,12.60,0.00,0.00,0.00,-0.06,9.46,5.25,0.00,0.00,0.00,0.00,3646.00,417265
25.321840,57.321033,112.90,12,114.07,-56.85,-49.20,12.30,0.00,0.00,0.00,-1.71,8.00,6.71,0.00,0.00,0.00,0.00,3648.00,417518
25.321838,57.321033,112.90,12,113.97,-56.40,-44.70,12.00,0.00,0.00,0.00,-1.71,7.63,7.02,0.00,0.00,0.00,0.00,3648.00,417780
25.321838,57.321033,112.90,12,113.86,-55.80,-45.15,11.85,0.00,0.00,0.00,-0.06,9.64,7.02,0.00,0.00,0.00,0.00,3656.00,418036
25.321838,57.321033,112.90,12,113.77,-56.10,-45.00,12.30,0.00,0.00,0.00,-0.85,8.61,5.74,0.00,0.00,0.00,0.00,3643.00,418296
25.321838,57.321033,112.90,12,113.68,-55.95,-44.85,12.00,0.00,0.00,0.00,-0.24,6.84,5.68,0.00,0.00,0.00,0.00,3648.00,418600
25.321838,57.321037,112.60,12,113.59,-56.25,-45.00,11.70,0.00,0.00,0.00,-0.92,9.22,5.49,0.00,0.00,0.00,0.00,3652.00,418858
25.321838,57.321037,112.60,12,113.49,-56.40,-45.30,12.00,0.00,0.00,0.00,-0.37,9.58,8.06,0.00,0.00,0.00,0.00,3642.00,419119
25.321838,57.321037,112.60,12,113.41,-55.65,-44.25,13.05,0.00,0.00,0.00,-1.77,9.46,6.23,0.00,0.00,0.00,0.00,3648.00,419383
25.321838,57.321037,112.60,12,113.32,-57.15,-49.20,12.45,0.00,0.00,0.00,-0.31,9.52,6.29,0.00,0.00,0.00,0.00,3645.00,419653
25.321838,57.321037,112.60,12,113.24,-55.65,-45.15,11.10,0.00,0.00,0.00,-0.92,8.48,6.29,0.00,0.00,0.00,0.00,3649.00,419919
25.321838,57.321037,112.60,12,113.15,-55.95,-44.55,12.00,0.00,0.00,0.00,-0.61,10.31,3.36,0.00,0.00,0.00,0.00,3648.00,420190
25.321838,57.321037,112.60,12,113.07,-56.25,-44.70,11.40,0.00,0.00,0.00,-0.18,7.87,6.84,0.00,0.00,0.00,0.00,3649.00,420457
25.321836,57.321041,112.60,12,112.96,-56.40,-45.15,11.85,0.00,0.00,0.00,-1.28,11.29,7.45,0.00,0.00,0.00,0.00,3644.00,420768
25.321836,57.321041,112.10,12,112.90,-57.00,-45.15,11.55,0.00,0.00,0.00,-2.75,8.79,6.84,0.00,0.00,0.00,0.00,3654.00,421068
25.321836,57.321041,112.10,12,112.83,-56.55,-45.30,12.00,0.00,0.00,0.00,-0.49,8.97,2.56,0.00,0.00,0.00,0.00,3646.00,421307
25.321836,57.321041,112.10,12,112.75,-56.70,-45.30,12.60,0.00,0.00,0.00,-1.40,9.70,5.43,0.00,0.00,0.00,0.00,3651.00,421547
25.321836,57.321041,112.10,12,112.68,-56.85,-49.35,12.90,0.00,0.00,0.00,-2.69,9.22,8.30,0.00,0.00,0.00,0.00,3642.00,421790
25.321836,57.321041,112.10,12,112.61,-55.35,-44.85,12.30,0.00,0.00,0.00,-0.24,8.73,6.77,0.00,0.00,0.00,0.00,3646.00,422042
25.321836,57.321041,112.10,12,112.56,-55.65,-44.70,12.15,0.00,0.00,0.00,-1.59,9.34,5.43,0.00,0.00,0.00,0.00,3646.00,422285
25.321836,57.321041,112.10,12,112.52,-55.65,-44.70,11.70,0.00,0.00,0.00,0.49,9.95,4.46,0.00,0.00,0.00,0.00,3650.00,422528
25.321835,57.321041,112.10,12,112.48,-56.55,-44.10,12.00,0.00,0.00,0.00,-0.92,9.03,5.55,0.00,0.00,0.00,0.00,3649.00,422815
25.321835,57.321041,112.10,12,112.44,-55.95,-44.85,12.00,0.00,0.00,0.00,-2.44,7.32,5.43,0.00,0.00,0.00,0.00,3644.00,423067
25.321835,57.321041,112.10,12,112.39,-56.10,-44.55,12.15,0.00,0.00,0.00,-1.22,9.58,6.47,0.00,0.00,0.00,0.00,3653.00,423317
25.321835,57.321041,112.10,12,112.35,-56.70,-45.30,11.85,0.00,0.00,0.00,-1.71,8.42,6.47,0.00,0.00,0.00,0.00,3651.00,423572
25.321835,57.321041,112.10,12,-1.00,-55.95,-45.00,12.45,0.00,0.00,0.00,-1.28,8.36,4.21,0.00,0.00,0.00,0.00,3644.00,423829
25.321835,57.321041,111.70,12,112.30,-57.45,-48.60,12.45,0.00,0.00,0.00,-1.16,9.09,5.98,0.00,0.00,0.00,0.00,3644.00,424085
25.321835,57.321041,111.70,12,112.25,-56.25,-45.30,12.75,0.00,0.00,0.00,0.12,9.83,5.49,0.00,0.00,0.00,0.00,3650.00,424340
25.321835,57.321041,111.70,12,112.21,-56.40,-44.55,12.45,0.00,0.00,0.00,-1.89,8.67,8.48,0.00,0.00,0.00,0.00,3650.00,424594
25.321833,57.321041,111.70,12,112.16,-55.65,-44.55,12.30,0.00,0.00,0.00,-1.65,11.96,3.85,0.00,0.00,0.00,0.00,3644.00,424893
25.321833,57.321041,111.70,12,112.12,-55.80,-45.00,12.30,0.00,0.00,0.00,-0.18,11.47,8.36,0.00,0.00,0.00,0.00,3641.00,425148
25.321833,57.321041,111.70,12,112.07,-56.55,-45.15,12.15,0.00,0.00,0.00,-0.37,10.25,4.82,0.00,0.00,0.00,0.00,3650.00,425403
25.321833,57.321041,111.70,12,112.03,-55.05,-45.00,11.85,0.00,0.00,0.00,-0.98,9.95,5.31,0.00,0.00,0.00,0.00,3653.00,425659
25.321831,57.321041,112.00,12,111.98,-56.55,-44.70,12.15,0.00,0.00,0.00,-2.69,9.58,7.63,0.00,0.00,0.00,0.00,3652.00,425920
25.321831,57.321041,112.00,12,111.95,-56.85,-48.75,13.20,0.00,0.00,0.00,0.37,9.46,7.08,0.00,0.00,0.00,0.00,3650.00,426180
25.321831,57.321041,112.00,12,111.95,-55.95,-45.00,12.00,0.00,0.00,0.00,-1.65,7.63,4.39,0.00,0.00,0.00,0.00,3648.00,426439
25.321831,57.321041,112.00,12,111.94,-56.70,-45.00,12.15,0.00,0.00,0.00,0.06,11.05,5.80,0.00,0.00,0.00,0.00,3648.00,426697
25.321831,57.321041,112.00,12,111.94,-55.65,-45.30,12.15,0.00,0.00,0.00,-1.65,9.64,5.80,0.00,0.00,0.00,0.00,3650.00,426998
25.321831,57.321041,112.00,12,111.93,-56.70,-45.00,11.10,0.00,0.00,0.00,-0.06,12.08,6.59,0.00,0.00,0.00,0.00,3650.00,427262
25.321831,57.321041,112.00,12,111.93,-55.35,-45.30,12.45,0.00,0.00,0.00,-2.20,10.80,4.94,0.00,0.00,0.00,0.00,3653.00,427521
25.321829,57.321041,112.00,12,111.93,-56.70,-45.60,11.85,0.00,0.00,0.00,-2.32,10.01,4.94,0.00,0.00,0.00,0.00,3650.00,427783
25.321829,57.321041,112.20,12,111.92,-56.40,-45.00,12.00,0.00,0.00,0.00,-1.65,7.87,6.90,0.00,0.00,0.00,0.00,3648.00,428045
25.321829,57.321041,112.20,12,111.92,-56.40,-48.00,12.45,0.00,0.00,0.00,0.43,9.64,6.47,0.00,0.00,0.00,0.00,3648.00,428310
25.321829,57.321041,112.20,12,111.93,-55.95,-45.00,12.15,0.00,0.00,0.00,-0.67,7.75,5.68,0.00,0.00,0.00,0.00,3648.00,428578
25.321827,57.321041,112.20,12,111.93,-56.40,-45.15,12.60,0.00,0.00,0.00,-0.12,10.38,5.62,0.00,0.00,0.00,0.00,3648.00,428847
25.321827,57.321041,112.40,12,111.93,-55.20,-45.00,11.70,0.00,0.00,0.00,-1.53,8.06,6.84,0.00,0.00,0.00,0.00,3656.00,429157
25.321827,57.321041,112.40,12,111.97,-55.20,-44.85,11.70,0.00,0.00,0.00,-0.67,9.46,5.74,0.00,0.00,0.00,0.00,3648.00,429422
25.321827,57.321041,112.40,12,112.01,-56.25,-44.10,11.85,0.00,0.00,0.00,0.24,9.89,7.08,0.00,0.00,0.00,0.00,3642.00,429724
25.321827,57.321041,112.40,12,112.04,-56.25,-44.55,12.00,0.00,0.00,0.00,-0.67,9.70,5.98,0.00,0.00,0.00,0.00,3653.00,429967
25.321827,57.321041,112.60,12,112.08,-55.50,-44.55,12.45,0.00,0.00,0.00,-1.28,8.42,4.52,0.00,0.00,0.00,0.00,3651.00,430209
25.321827,57.321041,112.60,12,112.13,-57.00,-48.90,12.15,0.00,0.00,0.00,-2.08,9.46,5.92,0.00,0.00,0.00,0.00,3650.00,430454
25.321827,57.321041,112.60,12,112.17,-56.25,-45.30,12.45,0.00,0.00,0.00,-0.73,10.44,5.25,0.00,0.00,0.00,0.00,3644.00,430698
25.321825,57.321041,112.80,12,112.22,-55.80,-45.00,12.45,0.00,0.00,0.00,-2.20,7.63,5.37,0.00,0.00,0.00,0.00,3648.00,430947
25.321825,57.321041,112.80,12,112.26,-55.80,-45.15,12.00,0.00,0.00,0.00,-0.37,9.77,6.10,0.00,0.00,0.00,0.00,3648.00,431235
25.321825,57.321041,112.80,12,112.31,-55.95,-44.10,12.30,0.00,0.00,0.00,-0.92,8.54,3.54,0.00,0.00,0.00,0.00,3648.00,431481
25.321825,57.321041,112.80,12,112.35,-56.40,-45.15,12.00,0.00,0.00,0.00,-0.61,12.08,5.49,0.00,0.00,0.00,0.00,3646.00,431730
25.321823,57.321041,112.80,12,112.39,-56.40,-44.70,11.70,0.00,0.00,0.00,-0.43,8.97,5.55,0.00,0.00,0.00,0.00,3653.00,431978
25.321823,57.321041,112.80,12,-1.00,-56.10,-45.15,12.00,0.00,0.00,0.00,-0.55,11.47,6.90,0.00,0.00,0.00,0.00,3648.00,432225
25.321823,57.321041,112.80,12,112.45,-56.10,-44.70,11.55,0.00,0.00,0.00,-1.04,8.79,4.58,0.00,0.00,0.00,0.00,3649.00,432475
25.321823,57.321041,112.80,12,112.49,-56.55,-48.30,12.30,0.00,0.00,0.00,1.10,11.23,6.53,0.00,0.00,0.00,0.00,3649.00,432723
25.321821,57.321037,113.10,12,112.53,-56.25,-44.85,11.85,0.00,0.00,0.00,-0.24,10.44,5.62,0.00,0.00,0.00,0.00,3645.00,432978
25.321821,57.321037,113.10,12,112.59,-55.95,-45.00,12.00,0.00,0.00,0.00,-0.18,8.48,6.04,0.00,0.00,0.00,0.00,3650.00,433272
25.321821,57.321037,113.10,12,112.63,-56.10,-44.55,12.00,0.00,0.00,0.00,-0.79,10.25,4.88,0.00,0.00,0.00,0.00,3650.00,433520
25.321821,57.321037,113.10,12,112.68,-56.55,-45.15,11.70,0.00,0.00,0.00,-1.95,9.22,7.39,0.00,0.00,0.00,0.00,3648.00,433775
25.321821,57.321037,113.10,12,112.72,-55.65,-44.55,11.85,0.00,0.00,0.00,-1.65,8.30,5.74,0.00,0.00,0.00,0.00,3650.00,434035
25.321821,57.321037,113.10,12,112.77,-56.10,-44.85,11.55,0.00,0.00,0.00,0.43,10.50,5.37,0.00,0.00,0.00,0.00,3651.00,434289
25.321821,57.321037,113.10,12,112.80,-55.95,-45.75,11.70,0.00,0.00,0.00,-0.12,9.46,5.13,0.00,0.00,0.00,0.00,3642.00,434543
25.321821,57.321037,113.10,12,112.84,-57.15,-48.30,11.85,0.00,0.00,0.00,-1.71,9.22,5.43,0.00,0.00,0.00,0.00,3650.00,434807
25.321821,57.321037,114.00,12,112.87,-55.50,-45.15,12.45,0.00,0.00,0.00,-0.98,9.64,4.94,0.00,0.00,0.00,0.00,3648.00,435066
25.321821,57.321037,114.00,12,112.95,-56.40,-45.30,12.45,0.00,0.00,0.00,-0.61,10.01,8.18,0.00,0.00,0.00,0.00,3641.00,435360
25.321821,57.321037,114.00,12,113.02,-55.95,-44.70,12.45,0.00,0.00,0.00,-1.28,8.24,4.94,0.00,0.00,0.00,0.00,3644.00,435616
25.321819,57.321037,114.10,12,113.09,-56.40,-44.70,12.30,0.00,0.00,0.00,-2.08,9.46,5.92,0.00,0.00,0.00,0.00,3652.00,435874
25.321819,57.321037,114.10,12,113.16,-55.95,-45.15,12.45,0.00,0.00,0.00,-0.55,8.24,4.76,0.00,0.00,0.00,0.00,3644.00,436140
25.321819,57.321037,114.10,12,113.23,-57.00,-44.70,11.55,0.00,0.00,0.00,-0.37,8.36,4.70,0.00,0.00,0.00,0.00,3645.00,436398
25.321819,57.321037,114.10,12,113.29,-55.80,-44.25,11.70,0.00,0.00,0.00,-1.77,9.09,5.37,0.00,0.00,0.00,0.00,3646.00,436660
25.321819,57.321037,114.40,12,113.36,-56.85,-48.00,12.90,0.00,0.00,0.00,1.83,10.50,4.15,0.00,0.00,0.00,0.00,3648.00,436922
25.321819,57.321037,114.40,12,113.44,-55.95,-45.45,12.30,0.00,0.00,0.00,-2.14,9.77,5.13,0.00,0.00,0.00,0.00,3652.00,437189
25.321819,57.321037,114.40,12,113.52,-56.40,-45.60,11.85,0.00,0.00,0.00,-0.55,10.31,5.68,0.00,0.00,0.00,0.00,3652.00,437502
25.321819,57.321033,114.40,12,113.64,-55.95,-45.30,12.15,0.00,0.00,0.00,-2.32,9.09,6.41,0.00,0.00,0.00,0.00,3644.00,437769
25.321819,57.321033,114.40,12,113.73,-55.95,-45.15,11.70,0.00,0.00,0.00,-2.01,10.56,6.41,0.00,0.00,0.00,0.00,3649.00,438036
25.321819,57.321033,114.40,12,113.79,-56.40,-45.60,12.00,0.00,0.00,0.00,0.43,9.83,7.93,0.00,0.00,0.00,0.00,3648.00,438333
25.321819,57.321033,114.40,12,113.86,-56.25,-45.00,11.85,0.00,0.00,0.00,0.18,8.97,6.41,0.00,0.00,0.00,0.00,3652.00,438580
25.321819,57.321033,114.40,12,113.93,-55.50,-45.90,11.70,0.00,0.00,0.00,-0.79,10.25,5.86,0.00,0.00,0.00,0.00,3654.00,438821
25.321819,57.321033,114.70,12,114.00,-57.15,-48.15,12.60,0.00,0.00,0.00,-1.53,6.71,7.08,0.00,0.00,0.00,0.00,3652.00,439068
25.321819,57.321033,114.70,12,114.08,-56.55,-45.15,12.30,0.00,0.00,0.00,-2.26,9.46,5.25,0.00,0.00,0.00,0.00,3650.00,439313
25.321819,57.321033,114.70,12,114.17,-55.65,-44.85,12.15,0.00,0.00,0.00,-0.43,8.48,7.45,0.00,0.00,0.00,0.00,3649.00,439603
25.321819,57.321033,114.70,12,114.25,-55.80,-45.30,12.45,0.00,0.00,0.00,-0.37,8.91,6.96,0.00,0.00,0.00,0.00,3649.00,439848
25.321819,57.321033,115.10,12,114.34,-55.80,-44.40,12.75,0.00,0.00,0.00,-1.04,9.77,3.72,0.00,0.00,0.00,0.00,3657.00,440093
25.321819,57.321033,115.10,12,114.39,-55.95,-43.95,12.45,0.00,0.00,0.00,1.04,10.25,2.26,0.00,0.00,0.00,0.00,3644.00,440338
25.321819,57.321033,115.10,12,-1.00,-56.40,-44.70,12.30,0.00,0.00,0.00,-0.55,8.91,7.02,0.00,0.00,0.00,0.00,3652.00,440583
25.321823,57.321030,115.10,12,114.49,-56.10,-44.10,12.15,0.00,0.00,0.00,-0.67,10.31,6.10,0.00,0.00,0.00,0.00,3653.00,440836
25.321823,57.321030,115.30,12,114.54,-55.80,-44.70,12.15,0.00,0.00,0.00,0.18,11.54,5.86,0.00,0.00,0.00,0.00,3648.00,441087
25.321823,57.321030,115.30,12,114.60,-57.45,-48.75,13.05,0.00,0.00,0.00,-2.50,7.63,5.62,0.00,0.00,0.00,0.00,3648.00,441338
25.321823,57.321030,115.30,12,114.66,-55.95,-46.05,12.60,0.00,0.00,0.00,-1.22,7.32,5.98,0.00,0.00,0.00,0.00,3653.00,441631
25.321825,57.321030,115.50,12,114.72,-55.80,-44.10,13.50,0.00,0.00,0.00,-0.18,8.30,7.32,0.00,0.00,0.00,0.00,3648.00,441885
25.321825,57.321030,115.50,12,114.79,-55.95,-44.70,11.85,0.00,0.00,0.00,-1.40,8.91,5.55,0.00,0.00,0.00,0.00,3641.00,442139
25.321825,57.321030,115.50,12,114.84,-57.00,-44.85,12.75,0.00,0.00,0.00,-0.12,8.61,5.07,0.00,0.00,0.00,0.00,3643.00,442392
25.321825,57.321030,115.50,12,114.90,-55.65,-44.70,12.60,0.00,0.00,0.00,-0.24,10.31,7.51,0.00,0.00,0.00,0.00,3652.00,442648
25.321825,57.321030,116.10,12,114.96,-56.55,-45.00,12.45,0.00,0.00,0.00,-1.65,9.40,6.41,0.00,0.00,0.00,0.00,3657.00,442903
25.321825,57.321030,116.10,12,115.04,-55.50,-45.30,12.15,0.00,0.00,0.00,-0.24,11.66,5.68,0.00,0.00,0.00,0.00,3651.00,443158
25.321825,57.321030,116.10,12,115.13,-50.85,-52.65,12.75,0.00,0.00,0.00,-3.23,5.80,4.46,0.00,0.00,0.00,0.00,3638.00,443414
25.321825,57.321030,116.10,12,115.21,-48.90,-47.70,13.35,0.00,0.00,0.00,0.37,5.43,5.86,0.00,0.00,0.00,0.00,3644.00,443710
25.321827,57.321030,116.20,12,115.30,-55.65,-44.85,11.55,0.00,0.00,0.00,-3.85,10.01,10.13,0.00,0.00,0.00,0.00,3634.00,443966
25.321827,57.321030,116.20,12,115.38,-56.10,-44.85,12.15,0.00,0.00,0.00,-1.89,11.17,8.36,0.00,0.00,0.00,0.00,3638.00,444226
25.321827,57.321030,116.20,12,115.46,-55.50,-44.85,12.15,0.00,0.00,0.00,-1.34,11.41,1.59,0.00,0.00,0.00,0.00,3645.00,444488
25.321827,57.321030,116.20,12,115.53,-55.05,-45.00,12.60,0.00,0.00,0.00,-0.43,8.67,7.69,0.00,0.00,0.00,0.00,3646.00,444753
25.321827,57.321026,116.70,12,115.61,-55.50,-44.40,12.60,0.00,0.00,0.00,-1.16,9.77,5.86,0.00,0.00,0.00,0.00,3648.00,445013
25.321827,57.321026,116.70,12,115.71,-55.20,-45.90,11.40,0.00,0.00,0.00,2.56,11.29,9.03,0.00,0.00,0.00,0.00,3641.00,445283
25.321827,57.321026,116.70,12,115.79,-55.80,-49.20,12.15,0.00,0.00,0.00,-0.79,6.90,3.97,0.00,0.00,0.00,0.00,3644.00,445548
25.321827,57.321022,117.20,12,115.87,-52.80,-46.05,11.85,0.00,0.00,0.00,1.46,13.49,6.84,0.00,0.00,0.00,0.00,3636.00,445863
25.321827,57.321022,117.20,12,116.02,-49.20,-48.45,12.00,0.00,0.00,0.00,-0.37,11.72,0.98,0.00,0.00,0.00,0.00,3617.00,446130
25.321827,57.321022,117.20,12,116.12,-44.10,-50.55,12.75,0.00,0.00,0.00,30.76,-28.63,34.79,0.00,0.00,0.00,0.00,3644.00,446395
25.321827,57.321022,117.20,12,116.22,-45.30,-49.65,10.65,0.00,0.00,0.00,31.31,15.50,15.99,0.00,0.00,0.00,0.00,3784.00,446658
25.321827,57.321022,117.80,12,116.32,-44.40,-49.35,11.10,0.00,0.00,0.00,9.95,9.89,-29.17,0.00,0.00,0.00,0.00,3814.00,446954
25.321827,57.321022,117.80,12,116.44,-43.95,-49.80,12.00,0.00,025.321827,57.321022,117.80,12,116.56,-39.90,-45.00,11.55,0.00,0.00,0.00,23.32,33.33,196.23,0.00,0.00,0.00,0.00,3794.00,447438
25.321827,57.321022,117.80,12,116.68,-40.20,-47.55,13.35,0.00,0.00,0.00,-21.36,23.38,-117.74,0.00,0.00,0.00,0.00,3789.00,447679
25.321835,57.321018,119.60,12,116.81,-44.25,-49.50,13.80,0.00,0.00,0.00,-0.24,23.86,-138.79,0.00,0.00,0.00,0.00,3805.00,447970
25.321835,57.321018,119.60,12,116.99,-45.00,-50.55,13.35,0.00,0.00,0.00,4.52,20.51,-3.60,0.00,0.00,0.00,0.00,3796.00,448213
25.321835,57.321018,119.60,12,117.17,-45.00,-50.25,13.05,0.00,0.00,0.00,0.49,1.65,10.80,0.00,0.00,0.00,0.00,3797.00,448457
25.321835,57.321018,119.60,12,117.36,-44.70,-50.55,13.50,0.00,0.00,0.00,-29.72,16.66,-12.63,0.00,0.00,0.00,0.00,3805.00,448708
25.321852,57.321022,121.40,12,-1.00,-46.05,-52.50,15.30,0.00,0.00,0.00,-55.66,18.19,-29.91,0.00,0.00,0.00,0.00,3800.00,448958
25.321852,57.321022,121.40,12,117.74,-46.50,-52.05,16.80,0.00,0.00,0.00,-62.50,20.26,3.05,0.00,0.00,0.00,0.00,3800.00,449207
25.321852,57.321022,121.40,12,117.99,-45.30,-50.70,17.70,0.00,0.00,0.00,-38.27,30.64,51.51,0.00,0.00,0.00,0.00,3810.00,449457
25.321852,57.321022,121.40,12,118.25,-44.70,-49.95,19.50,0.00,0.00,0.00,-40.41,34.97,64.88,0.00,0.00,0.00,0.00,3793.00,449711
25.321875,57.321026,121.40,12,118.51,-44.85,-52.95,20.70,0.00,0.00,0.00,-9.16,-10.44,10.68,0.00,0.00,0.00,0.00,3796.00,450001
25.321875,57.321026,121.40,12,118.77,-43.65,-49.35,19.05,0.00,0.00,0.00,34.00,-25.21,-11.54,0.00,0.00,0.00,0.00,3794.00,450255
25.321875,57.321026,121.40,12,119.01,-43.65,-48.90,18.00,0.00,0.00,0.00,49.44,10.01,6.65,0.00,0.00,0.00,0.00,3800.00,450508
25.321886,57.321022,121.40,12,119.24,-43.95,-49.20,17.55,0.00,0.00,0.00,5.86,-10.44,-0.43,0.00,0.00,0.00,0.00,3802.00,450758
25.321886,57.321022,125.20,12,119.48,-46.05,-49.05,16.20,0.00,0.00,0.00,5.98,-5.49,9.46,0.00,0.00,0.00,0.00,3802.00,451012
25.321886,57.321022,125.20,12,119.88,-45.45,-50.25,16.05,0.00,0.00,0.00,-3.30,-11.72,-9.77,0.00,0.00,0.00,0.00,3798.00,451265
25.321886,57.321022,125.20,12,120.28,-45.90,-49.50,16.35,0.00,0.00,0.00,-16.85,8.36,-0.37,0.00,0.00,0.00,0.00,3799.00,451518
25.321892,57.321018,125.20,12,120.68,-43.95,-50.10,16.20,0.00,0.00,0.00,-10.25,15.87,7.57,0.00,0.00,0.00,0.00,3805.00,451774
25.321892,57.321018,127.50,12,121.08,-45.60,-52.65,17.25,0.00,0.00,0.00,11.60,11.66,55.97,0.00,0.00,0.00,0.00,3805.00,452072
25.321892,57.321018,127.50,12,121.57,-42.30,-47.40,16.50,0.00,0.00,0.00,4.64,-0.24,128.36,0.00,0.00,0.00,0.00,3796.00,452332
25.321892,57.321018,127.50,12,122.05,-41.70,-43.80,16.50,0.00,0.00,0.00,-14.65,9.83,84.05,0.00,0.00,0.00,0.00,3784.00,452590
25.321899,57.321014,127.50,12,122.53,-39.15,-43.80,16.80,0.00,0.00,0.00,-18.92,15.26,-34.55,0.00,0.00,0.00,0.00,3788.00,452856
25.321899,57.321014,129.60,12,123.02,-40.95,-45.15,15.75,0.00,0.00,0.00,21.24,12.51,-39.18,0.00,0.00,0.00,0.00,3784.00,453123
25.321899,57.321014,129.60,12,123.52,-43.05,-47.85,14.85,0.00,0.00,0.00,7.14,7.20,-83.80,0.00,0.00,0.00,0.00,3800.00,453385
25.321899,57.321014,129.60,12,124.02,-45.15,-49.05,14.85,0.00,0.00,0.00,28.63,-23.99,-54.63,0.00,0.00,0.00,0.00,3802.00,453645
25.321903,57.321022,131.10,12,124.52,-45.45,-49.65,13.05,0.00,0.00,0.00,9.03,15.87,-61.04,0.00,0.00,0.00,0.00,3807.00,453912
25.321903,57.321022,131.10,12,125.10,-48.15,-54.90,15.15,0.00,0.00,0.00,-46.02,24.60,-27.40,0.00,0.00,0.00,0.00,3806.00,454214
25.321903,57.321022,131.10,12,125.80,-47.25,-53.10,15.75,0.00,0.00,0.00,-44.98,8.30,-42.11,0.00,0.00,0.00,0.00,3804.00,454483
25.321903,57.321022,131.10,12,126.31,-48.60,-53.10,17.40,0.00,0.00,0.00,-70.86,3.36,23.25,0.00,0.00,0.00,0.00,3810.00,454747
25.321918,57.321022,132.50,12,126.82,-48.75,-51.60,17.70,0.00,0.00,0.00,-18.68,-45.10,66.41,0.00,0.00,0.00,0.00,3806.00,455011
25.321918,57.321022,132.50,12,127.41,-46.05,-50.25,16.65,0.00,0.00,0.00,1.28,-28.26,83.19,0.00,0.00,0.00,0.00,3803.00,455277
25.321918,57.321022,132.50,12,127.99,-44.85,-49.50,15.75,0.00,0.00,0.00,25.70,-8.79,48.58,0.00,0.00,0.00,0.00,3801.00,455574
25.321928,57.321026,132.50,12,128.57,-44.55,-49.35,14.85,0.00,0.00,0.00,12.76,-3.23,-8.42,0.00,0.00,0.00,0.00,3811.00,455818
25.321928,57.321026,132.40,12,129.16,-45.30,-49.80,14.10,0.00,0.00,0.00,-13.18,-4.76,-25.33,0.00,0.00,0.00,0.00,3811.00,456060
25.321928,57.321026,132.40,12,129.54,-46.05,-53.40,14.85,0.00,0.00,0.00,-17.52,17.94,0.98,0.00,0.00,0.00,0.00,3805.00,456350
25.321928,57.321026,132.40,12,129.92,-45.30,-49.95,15.60,0.00,0.00,0.00,2.93,16.72,-6.23,0.00,0.00,0.00,0.00,3804.00,456599
25.321930,57.321026,132.40,12,130.29,-44.85,-50.55,15.75,0.00,0.00,0.00,-11.72,22.40,12.21,0.00,0.00,0.00,0.00,3807.00,456847
25.321930,57.321026,133.30,12,130.67,-44.10,-49.35,16.20,0.00,0.00,0.00,-17.70,7.20,6.65,0.00,0.00,0.00,0.00,3811.00,457093
25.321930,57.321026,133.30,12,130.98,-44.40,-48.90,15.60,0.00,0.00,0.00,13.00,12.70,1.89,0.00,0.00,0.00,0.00,3800.00,457341
25.321930,57.321026,133.30,12,131.28,-43.80,-49.65,16.20,0.00,0.00,0.00,-4.33,20.57,13.24,0.00,0.00,0.00,0.00,3796.00,457591
25.321930,57.321030,133.30,12,131.59,-44.25,-49.35,16.05,0.00,0.00,0.00,24.17,5.31,5.37,0.00,0.00,0.00,0.00,3800.00,457838
25.321930,57.321030,133.50,12,-1.00,-45.00,-49.50,16.20,0.00,0.00,0.00,22.34,-8.97,2.01,0.00,0.00,0.00,0.00,3801.00,458089
25.321930,57.321030,133.50,12,131.98,-43.65,-50.10,15.15,0.00,0.00,0.00,2.81,12.94,2.56,0.00,0.00,0.00,0.00,3801.00,458377
25.321930,57.321030,133.50,12,132.17,-46.05,-53.70,15.60,0.00,0.00,0.00,10.62,7.20,-3.30,0.00,0.00,0.00,0.00,3807.00,458627
25.321930,57.321030,133.70,12,132.37,-44.40,-50.55,14.70,0.00,0.00,0.00,12.02,3.85,-2.87,0.00,0.00,0.00,0.00,3812.00,458879
25.321930,57.321030,133.70,12,132.57,-44.70,-49.95,14.40,0.00,0.00,0.00,-7.51,-1.89,3.78,0.00,0.00,0.00,0.00,3804.00,459133
25.321930,57.321030,133.70,12,132.70,-45.00,-50.40,14.55,0.00,0.00,0.00,-11.29,0.98,5.55,0.00,0.00,0.00,0.00,3806.00,459388
25.321930,57.321030,133.70,12,132.83,-45.00,-50.40,14.55,0.00,0.00,0.00,18.80,11.29,19.78,0.00,0.00,0.00,0.00,3808.00,459642
25.321928,57.321030,133.70,12,132.96,-45.30,-49.50,14.25,0.00,0.00,0.00,3.05,11.29,27.95,0.00,0.00,0.00,0.00,3811.00,459896
25.321928,57.321030,134.00,12,133.09,-45.30,-50.25,14.55,0.00,0.00,0.00,-3.36,15.32,37.23,0.00,0.00,0.00,0.00,3808.00,460153
25.321928,57.321030,134.00,12,133.17,-45.60,-50.25,14.70,0.00,0.00,0.00,0.18,19.90,15.38,0.00,0.00,0.00,0.00,3798.00,460450
25.321928,57.321030,134.00,12,133.24,-45.45,-52.95,14.85,0.00,0.00,0.00,11.05,4.27,2.99,0.00,0.00,0.00,0.00,3800.00,460705
25.321930,57.321033,133.80,12,133.31,-45.15,-49.20,13.80,0.00,0.00,0.00,-6.47,2.32,10.44,0.00,0.00,0.00,0.00,3810.00,460965
25.321930,57.321033,133.80,12,133.38,-45.00,-49.80,13.65,0.00,0.00,0.00,-2.38,7.75,54.14,0.00,0.00,0.00,0.00,3812.00,461225
25.321930,57.321033,133.80,12,133.45,-42.90,-47.85,13.95,0.00,0.00,0.00,22.83,2.56,34.67,0.00,0.00,0.00,0.00,3806.00,461484
25.321932,57.321033,133.80,12,133.52,-41.70,-47.55,12.75,0.00,0.00,0.00,13.24,1.71,52.06,0.00,0.00,0.00,0.00,3811.00,461749
25.321932,57.321033,134.50,12,133.59,-40.95,-46.95,12.75,0.00,0.00,0.00,9.58,9.77,43.33,0.00,0.00,0.00,0.00,3804.00,462012
25.321932,57.321033,134.50,12,133.69,-39.45,-45.60,15.00,0.00,0.00,0.00,139.22,248.66,53.96,0.00,0.00,0.00,0.00,3805.00,462274
25.321932,57.321033,134.50,12,133.76,-37.65,-45.15,19.65,0.00,0.00,0.00,129.03,215.45,76.60,0.00,0.00,0.00,0.00,3771.00,462576
25.321936,57.321037,134.50,12,133.82,-39.15,-47.55,22.05,0.00,0.00,0.00,3.97,52.67,27.04,0.00,0.00,0.00,0.00,3774.00,462843
25.321936,57.321037,134.90,12,133.91,-35.25,-43.50,22.05,0.00,0.00,0.00,-32.10,-25.21,29.30,0.00,0.00,0.00,0.00,3772.00,463110
25.321936,57.321037,134.90,12,133.98,-35.40,-43.20,22.05,0.00,0.00,0.00,-6.10,-27.16,-8.18,0.00,0.00,0.00,0.00,3776.00,463376
25.321936,57.321037,134.90,12,-1.00,-35.55,-42.90,20.70,0.00,0.00,0.00,4.76,1.40,-12.94,0.00,0.00,0.00,0.00,3777.00,463642
25.321943,57.321060,135.90,12,134.13,-35.55,-44.25,21.00,0.00,0.00,0.00,30.58,22.83,11.41,0.00,0.00,0.00,0.00,3772.00,463939
25.321943,57.321060,135.90,12,134.24,-35.40,-44.70,22.05,0.00,0.00,0.00,7.14,37.72,-25.27,0.00,0.00,0.00,0.00,3776.00,464185
25.321943,57.321060,135.90,12,134.36,-36.15,-45.00,21.15,0.00,0.00,0.00,9.28,5.80,-24.48,0.00,0.00,0.00,0.00,3768.00,464432
25.321943,57.321060,135.90,12,134.47,-37.20,-46.20,21.60,0.00,0.00,0.00,3.36,19.35,4.58,0.00,0.00,0.00,0.00,3761.00,464720
25.321957,57.321095,135.90,12,134.59,-37.95,-48.15,22.35,0.00,0.00,0.00,-5.68,2.20,2.81,0.00,0.00,0.00,0.00,3777.00,464970
25.321957,57.321095,137.50,12,134.71,-37.80,-45.30,21.15,0.00,0.00,0.00,-8.18,9.64,-10.31,0.00,0.00,0.00,0.00,3774.00,465221
25.321957,57.321095,137.50,12,134.89,-38.25,-46.05,22.05,0.00,0.00,0.00,-21.67,13.24,-46.69,0.00,0.00,0.00,0.00,3770.00,465465
25.321957,57.321095,137.50,12,135.07,-39.45,-45.30,21.45,0.00,0.00,0.00,-6.47,31.19,-13.79,0.00,0.00,0.00,0.00,3776.00,465712
25.321976,57.321140,139.80,12,135.26,-40.80,-46.35,21.60,0.00,0.00,0.00,-37.05,14.83,-26.73,0.00,0.00,0.00,0.00,3782.00,465961
25.321976,57.321140,139.80,12,-1.00,-41.85,-45.60,21.45,0.00,0.00,0.00,-29.48,-50.17,31.13,0.00,0.00,0.00,0.00,3773.00,466213
25.321976,57.321140,139.80,12,135.79,-39.75,-44.10,20.55,0.00,0.00,0.00,-0.43,-45.04,48.10,0.00,0.00,0.00,0.00,3783.00,466463
25.321995,57.321194,139.80,12,136.09,-38.55,-45.15,19.65,0.00,0.00,0.00,22.03,23.50,21.48,0.00,0.00,0.00,0.00,3772.00,466754
25.321995,57.321194,142.20,12,136.52,-38.55,-44.10,20.10,0.00,0.00,0.00,3.36,50.35,14.53,0.00,0.00,0.00,0.00,3778.00,467004
25.321995,57.321194,142.20,12,-1.00,-40.20,-49.20,22.05,0.00,0.00,0.00,41.56,23.86,-41.93,0.00,0.00,0.00,0.00,3782.00,467258
25.321995,57.321194,142.20,12,137.19,-39.60,-45.90,21.15,0.00,0.00,0.00,-34.61,-3.91,-10.31,0.00,0.00,0.00,0.00,3780.00,467513
25.322016,57.321243,142.20,12,137.57,-40.95,-45.45,21.60,0.00,0.00,0.00,-26.67,-11.23,-9.46,0.00,0.00,0.00,0.00,3781.00,467764
25.322016,57.321243,142.20,12,137.96,-41.10,-45.90,20.40,0.00,0.00,0.00,-21.67,-24.84,9.64,0.00,0.00,0.00,0.00,3778.00,468022
25.322016,57.321243,142.20,12,138.35,-41.40,-46.35,19.65,0.00,0.00,0.00,7.75,10.31,3.72,0.00,0.00,0.00,0.00,3781.00,468275
25.322016,57.321243,142.20,12,138.71,-40.50,-46.20,20.55,0.00,0.00,0.00,-1.71,12.88,5.86,0.00,0.00,0.00,0.00,3780.00,468536
25.322037,57.321297,142.20,12,139.07,-40.65,-46.95,19.65,0.00,0.00,0.00,2.81,19.29,9.52,0.00,0.00,0.00,0.00,3790.00,468832
25.322037,57.321297,147.50,12,139.44,-40.35,-46.80,20.25,0.00,0.00,0.00,24.23,22.34,-18.25,0.00,0.00,0.00,0.00,3778.00,469091
25.322037,57.321297,147.50,12,140.02,-41.55,-50.70,20.25,0.00,0.00,0.00,-21.18,16.91,12.63,0.00,0.00,0.00,0.00,3789.00,469350
25.322037,57.321297,147.50,12,140.60,-40.05,-48.00,20.10,0.00,0.00,0.00,-1.10,1.22,23.25,0.00,0.00,0.00,0.00,3786.00,469609
25.322058,57.321350,147.50,12,141.18,-38.70,-46.95,20.40,0.00,0.00,0.00,1.77,18.13,1.04,0.00,0.00,0.00,0.00,3784.00,469871
25.322058,57.321350,150.10,12,141.76,-39.45,-46.95,20.55,0.00,0.00,0.00,-23.68,19.90,41.99,0.00,0.00,0.00,0.00,3779.00,470131
25.322058,57.321350,150.10,12,142.47,-39.15,-47.10,21.15,0.00,0.00,0.00,-10.50,5.07,6.23,0.00,0.00,0.00,0.00,3786.00,470389
25.322058,57.321350,150.10,12,143.10,-39.30,-47.40,20.25,0.00,0.00,0.00,-17.94,15.20,26.00,0.00,0.00,0.00,0.00,3785.00,470652
25.322081,57.321400,152.90,12,143.73,-39.75,-47.55,20.85,0.00,0.00,0.00,-1.10,23.80,21.24,0.00,0.00,0.00,0.00,3790.00,470953
25.322081,57.321400,152.90,12,144.50,-38.40,-47.85,21.00,0.00,0.00,0.00,-19.35,12.88,9.34,0.00,0.00,0.00,0.00,3792.00,471216
25.322081,57.321400,152.90,12,145.44,-40.95,-50.40,20.40,0.00,0.00,0.00,7.20,-26.67,10.38,0.00,0.00,0.00,0.00,3784.00,471476
25.322081,57.321400,152.90,12,146.13,-38.85,-46.65,20.55,0.00,0.00,0.00,-20.32,4.03,-5.19,0.00,0.00,0.00,0.00,3778.00,471742
25.322102,57.321453,155.70,12,-1.00,-40.65,-46.20,20.10,0.00,0.00,0.00,5.55,-7.51,-5.43,0.00,0.00,0.00,0.00,3792.00,472006
25.322102,57.321453,155.70,12,147.53,-38.70,-47.55,19.65,0.00,0.00,0.00,20.69,9.03,-24.05,0.00,0.00,0.00,0.00,3780.00,472274
25.322102,57.321453,155.70,12,148.24,-39.90,-47.10,19.80,0.00,0.00,0.00,-11.35,21.61,31.25,0.00,0.00,0.00,0.00,3789.00,472575
25.322124,57.321503,155.70,12,148.95,-39.75,-47.40,19.65,0.00,0.00,0.00,9.95,7.81,8.12,0.00,0.00,0.00,0.00,3787.00,472819
25.322124,57.321503,155.70,12,149.66,-38.55,-46.80,20.55,0.00,0.00,0.00,3.30,16.11,5.80,0.00,0.00,0.00,0.00,3787.00,473108
25.322124,57.321503,155.70,12,150.37,-39.00,-46.95,19.65,0.00,0.00,0.00,-32.59,7.26,43.52,0.00,0.00,0.00,0.00,3780.00,473350
25.322124,57.321503,155.70,12,151.08,-38.70,-50.25,19.80,0.00,0.00,0.00,16.54,-7.02,1.77,0.00,0.00,0.00,0.00,3784.00,473599
25.322145,57.321552,155.70,12,151.79,-39.15,-46.80,19.50,0.00,0.00,0.00,4.58,18.43,-0.98,0.00,0.00,0.00,0.00,3788.00,473851
25.322145,57.321552,161.40,12,152.50,-40.50,-46.65,20.10,0.00,0.00,0.00,-11.60,13.98,10.50,0.00,0.00,0.00,0.00,3790.00,474095
25.322145,57.321552,161.40,12,153.23,-39.00,-46.50,20.70,0.00,0.00,0.00,-9.70,17.27,20.87,0.00,0.00,0.00,0.00,3784.00,474341
25.322145,57.321552,161.40,12,-1.00,-38.85,-46.35,20.55,0.00,0.00,0.00,-40.22,28.69,-19.59,0.00,0.00,0.00,0.00,3788.00,474592
25.322145,57.321552,161.40,12,154.33,-40.35,-46.95,20.85,0.00,0.00,0.00,19.96,-10.38,14.28,0.00,0.00,0.00,0.00,3787.00,474843
25.322168,57.321606,164.30,12,155.03,-40.50,-46.35,20.25,0.00,0.00,0.00,11.96,17.46,-32.47,0.00,0.00,0.00,0.00,3797.00,475130
25.322168,57.321606,164.30,12,155.87,-39.60,-47.25,20.40,0.00,0.00,0.00,5.43,11.78,-12.82,0.00,0.00,0.00,0.00,3801.00,475378
25.322168,57.321606,164.30,12,156.58,-39.90,-47.25,20.55,0.00,0.00,0.00,13.24,21.79,-0.79,0.00,0.00,0.00,0.00,3802.00,475630
25.322189,57.321655,167.30,12,157.29,-41.70,-50.85,21.75,0.00,0.00,0.00,-24.17,-0.06,-2.87,0.00,0.00,0.00,0.00,3798.00,475879
25.322189,57.321655,167.30,12,158.15,-40.50,-47.55,21.45,0.00,0.00,0.00,37.17,-18.62,-14.22,0.00,0.00,0.00,0.00,3803.00,476134
25.322189,57.321655,167.30,12,158.87,-39.15,-47.85,20.70,0.00,0.00,0.00,-14.10,-2.14,20.32,0.00,0.00,0.00,0.00,3798.00,476392
25.322189,57.321655,167.30,12,159.59,-40.50,-47.40,20.70,0.00,0.00,0.00,-13.37,26.18,5.31,0.00,0.00,0.00,0.00,3794.00,476643
25.322210,57.321709,170.10,12,160.31,-39.60,-46.95,19.95,0.00,0.00,0.00,13.24,-8.00,-15.08,0.00,0.00,0.00,0.00,3797.00,476899
25.322210,57.321709,170.10,12,161.17,-37.95,-48.75,19.80,0.00,0.00,0.00,-55.60,1.89,-41.69,0.00,0.00,0.00,0.00,3798.00,477199
25.322210,57.321709,170.10,12,161.89,-41.10,-47.85,18.90,0.00,0.00,0.00,39.37,-32.47,0.55,0.00,0.00,0.00,0.00,3803.00,477458
25.322210,57.321709,170.10,12,162.61,-41.25,-47.70,18.60,0.00,0.00,0.00,-2.56,-1.83,19.23,0.00,0.00,0.00,0.00,3805.00,477715
25.322229,57.321758,173.20,12,163.33,-40.95,-51.15,18.60,0.00,0.00,0.00,-13.98,23.25,42.48,0.00,0.00,0.00,0.00,3803.00,477978
25.322229,57.321758,173.20,12,164.21,-38.25,-45.75,19.20,0.00,0.00,0.00,11.05,17.15,50.23,0.00,0.00,0.00,0.00,3803.00,478239
25.322229,57.321758,173.20,12,165.08,-36.90,-45.00,19.50,0.00,0.00,0.00,-37.05,23.86,26.25,0.00,0.00,0.00,0.00,3798.00,478502
25.322250,57.321812,173.20,12,165.96,-37.65,-44.55,19.20,0.00,0.00,0.00,-38.15,7.45,13.79,0.00,0.00,0.00,0.00,3803.00,478761
25.322250,57.321812,176.10,12,166.83,-38.55,-43.65,19.80,0.00,0.00,0.00,15.69,1.53,-0.79,0.00,0.00,0.00,0.00,3798.00,479022
25.322250,57.321812,176.10,12,167.85,-39.60,-44.10,19.95,0.00,0.00,0.00,5.98,-5.92,7.69,0.00,0.00,0.00,0.00,3795.00,479323
25.322250,57.321812,176.10,12,168.59,-36.15,-45.00,20.10,0.00,0.00,0.00,23.56,51.82,-34.12,0.00,0.00,0.00,0.00,3806.00,479585
25.322250,57.321812,176.10,12,169.32,-38.10,-45.30,20.40,0.00,0.00,0.00,-9.46,18.37,-4.03,0.00,0.00,0.00,0.00,3797.00,479852
25.322273,57.321861,179.00,12,170.51,-40.20,-48.30,20.10,0.00,0.00,0.00,-34.30,16.91,-13.61,0.00,0.00,0.00,0.00,3801.00,480114
25.322273,57.321861,179.00,12,-1.00,-38.40,-44.85,20.25,0.00,0.00,0.00,-25.39,-14.04,34.24,0.00,0.00,0.00,0.00,3802.00,480381
25.322273,57.321861,179.00,12,172.06,-39.60,-44.85,19.20,0.00,0.00,0.00,0.49,-3.17,-16.91,0.00,0.00,0.00,0.00,3808.00,480646
25.322296,57.321911,182.00,12,172.83,-39.90,-45.00,19.80,0.00,0.00,0.00,-2.56,24.29,-14.89,0.00,0.00,0.00,0.00,3812.00,480952
25.322296,57.321911,182.00,12,173.61,-39.00,-45.00,19.80,0.00,0.00,0.00,12.15,1.10,23.86,0.00,0.00,0.00,0.00,3812.00,481204
25.322296,57.321911,182.00,12,174.38,-38.70,-44.55,19.05,0.00,0.00,0.00,4.27,2.08,30.27,0.00,0.00,0.00,0.00,3814.00,481497
25.322296,57.321911,182.00,12,175.15,-37.20,-45.45,19.80,0.00,0.00,0.00,18.43,27.65,19.17,0.00,0.00,0.00,0.00,3808.00,481743
25.322315,57.321964,185.00,12,175.93,-39.15,-44.40,19.95,0.00,0.00,0.00,-21.91,26.73,22.46,0.00,0.00,0.00,0.00,3801.00,481989
25.322315,57.321964,185.00,12,176.71,-38.10,-48.90,21.60,0.00,0.00,0.00,12.76,24.78,-51.09,0.00,0.00,0.00,0.00,3808.00,482233
25.322315,57.321964,185.00,12,177.49,-38.25,-46.05,21.00,0.00,0.00,0.00,9.95,24.41,21.48,0.00,0.00,0.00,0.00,3811.00,482483
25.322315,57.321964,185.00,12,178.28,-38.85,-47.10,21.00,0.00,0.00,0.00,7.63,18.13,-0.79,0.00,0.00,0.00,0.00,3814.00,482731
25.322336,57.322014,187.80,12,179.06,-38.40,-45.75,20.85,0.00,0.00,0.00,-12.94,15.26,21.06,0.00,0.00,0.00,0.00,3816.00,482982
25.322336,57.322014,187.80,12,179.83,-38.40,-46.05,20.40,0.00,0.00,0.00,-16.85,10.68,19.35,0.00,0.00,0.00,0.00,3814.00,483233
25.322336,57.322014,187.80,12,-1.00,-39.90,-46.05,20.85,0.00,0.00,0.00,-44.56,12.21,-8.97,0.00,0.00,0.00,0.00,3812.00,483523
25.322357,57.322067,187.80,12,181.37,-39.00,-45.90,21.15,0.00,0.00,0.00,-27.89,13.43,2.44,0.00,0.00,0.00,0.00,3812.00,483774
25.322357,57.322067,190.80,12,182.14,-38.55,-46.95,21.00,0.00,0.00,0.00,17.46,1.04,-4.76,0.00,0.00,0.00,0.00,3820.00,484027
25.322357,57.322067,190.80,12,182.91,-38.85,-46.35,19.95,0.00,0.00,0.00,42.97,0.79,-23.74,0.00,0.00,0.00,0.00,3827.00,484280
25.322357,57.322067,190.80,12,-1.00,-40.35,-51.45,20.10,0.00,0.00,0.00,-4.76,4.76,21.24,0.00,0.00,0.00,0.00,3820.00,484533
25.322357,57.322067,190.80,12,184.04,-39.75,-46.35,20.10,0.00,0.00,0.00,-11.54,1.53,21.00,0.00,0.00,0.00,0.00,3812.00,484796
25.322376,57.322117,194.00,12,184.78,-38.70,-46.95,20.25,0.00,0.00,0.00,5.68,-0.49,1.53,0.00,0.00,0.00,0.00,3818.00,485051
25.322376,57.322117,194.00,12,185.67,-39.15,-46.65,19.20,0.00,0.00,0.00,9.64,-10.38,-27.28,0.00,0.00,0.00,0.00,3817.00,485310
25.322376,57.322117,194.00,12,186.42,-38.70,-46.95,18.90,0.00,0.00,0.00,-2.56,16.66,-15.08,0.00,0.00,0.00,0.00,3826.00,485610
25.322397,57.322166,197.10,12,187.17,-39.60,-46.95,18.45,0.00,0.00,0.00,11.54,22.46,23.25,0.00,0.00,0.00,0.00,3825.00,485870
25.322397,57.322166,197.10,12,188.08,-39.15,-46.65,19.50,0.00,0.00,0.00,-32.84,31.49,-1.04,0.00,0.00,0.00,0.00,3822.00,486126
25.322397,57.322166,197.10,12,188.83,-40.05,-46.50,19.80,0.00,0.00,0.00,-26.49,12.15,-25.39,0.00,0.00,0.00,0.00,3826.00,486386
25.322397,57.322166,197.10,12,189.59,-40.35,-50.55,20.25,0.00,0.00,0.00,1.65,10.38,-18.80,0.00,0.00,0.00,0.00,3826.00,486643
25.322418,57.322216,200.20,12,190.34,-39.45,-46.65,20.55,0.00,0.00,0.00,21.55,32.65,48.83,0.00,0.00,0.00,0.00,3827.00,486904
25.322418,57.322216,200.20,12,191.25,-39.30,-47.40,20.85,0.00,0.00,0.00,14.77,14.95,-6.23,0.00,0.00,0.00,0.00,3822.00,487164
25.322418,57.322216,200.20,12,192.01,-38.85,-47.55,22.80,0.00,0.00,0.00,-32.23,22.89,-16.30,0.00,0.00,0.00,0.00,3830.00,487426
25.322418,57.322216,200.20,12,192.77,-40.05,-48.30,22.50,0.00,0.00,0.00,5.13,-6.71,9.95,0.00,0.00,0.00,0.00,3826.00,487722
25.322441,57.322266,203.50,12,193.53,-40.50,-47.55,21.15,0.00,0.00,0.00,6.41,3.48,13.24,0.00,0.00,0.00,0.00,3819.00,487985
25.322441,57.322266,203.50,12,194.81,-38.70,-47.85,21.75,0.00,0.00,0.00,2.62,8.48,26.61,0.00,0.00,0.00,0.00,3828.00,488247
25.322441,57.322266,203.50,12,195.63,-41.40,-46.20,21.75,0.00,0.00,0.00,-16.72,26.43,28.50,0.00,0.00,0.00,0.00,3836.00,488510
25.322462,57.322319,203.50,12,-1.00,-40.35,-50.55,23.10,0.00,0.00,0.00,-15.69,25.02,-24.11,0.00,0.00,0.00,0.00,3833.00,488777
25.322462,57.322319,203.50,12,197.28,-38.85,-46.95,22.65,0.00,0.00,0.00,7.63,4.39,18.37,0.00,0.00,0.00,0.00,3833.00,489049
25.322462,57.322319,203.50,12,197.95,-40.20,-47.40,23.40,0.00,0.00,0.00,10.62,6.41,-16.78,0.00,0.00,0.00,0.00,3826.00,489348
25.322462,57.322319,203.50,12,198.62,-40.35,-47.40,21.90,0.00,0.00,0.00,-27.22,15.32,-19.96,0.00,0.00,0.00,0.00,3834.00,489591
25.322462,57.322319,203.50,12,199.29,-39.75,-48.30,22.35,0.00,0.00,0.00,-24.23,3.17,11.35,0.00,0.00,0.00,0.00,3831.00,489876
25.322483,57.322369,209.80,12,199.96,-41.25,-46.95,21.00,0.00,0.00,0.00,-1.22,0.00,28.38,0.00,0.00,0.00,0.00,3830.00,490117
25.322483,57.322369,209.80,12,200.79,-39.75,-46.80,22.05,0.00,0.00,0.00,-4.88,2.38,1.34,0.00,0.00,0.00,0.00,3833.00,490359
25.322483,57.322369,209.80,12,201.62,-41.10,-47.40,21.60,0.00,0.00,0.00,28.32,-4.46,-9.52,0.00,0.00,0.00,0.00,3822.00,490602
25.322504,57.322418,209.80,12,-1.00,-40.95,-51.15,21.60,0.00,0.00,0.00,7.14,9.22,27.59,0.00,0.00,0.00,0.00,3838.00,490846
25.322504,57.322418,212.80,12,202.82,-39.30,-47.10,21.30,0.00,0.00,0.00,5.13,2.99,-1.04,0.00,0.00,0.00,0.00,3825.00,491098
25.322504,57.322418,212.80,12,203.61,-38.70,-47.25,21.45,0.00,0.00,0.00,0.24,-1.53,-7.08,0.00,0.00,0.00,0.00,3838.00,491352
25.322504,57.322418,212.80,12,204.39,-40.05,-47.10,20.55,0.00,0.00,0.00,18.55,-8.91,16.78,0.00,0.00,0.00,0.00,3834.00,491600
25.322525,57.322468,216.20,12,205.18,-38.25,-46.80,20.55,0.00,0.00,0.00,-3.05,29.85,15.01,0.00,0.00,0.00,0.00,3832.00,491886
25.322525,57.322468,216.20,12,206.13,-38.10,-46.95,21.60,0.00,0.00,0.00,3.72,26.31,13.18,0.00,0.00,0.00,0.00,3832.00,492141
25.322525,57.322468,216.20,12,206.93,-37.95,-46.65,21.75,0.00,0.00,0.00,5.55,30.46,-25.15,0.00,0.00,0.00,0.00,3830.00,492388
25.322525,57.322468,216.20,12,207.73,-38.85,-47.70,21.15,0.00,0.00,0.00,6.29,28.63,7.81,0.00,0.00,0.00,0.00,3837.00,492637
25.322550,57.322517,219.50,12,208.53,-39.90,-47.85,22.05,0.00,0.00,0.00,-14.83,35.77,-59.27,0.00,0.00,0.00,0.00,3834.00,492889
25.322550,57.322517,219.50,12,209.50,-41.10,-52.35,22.20,0.00,0.00,0.00,7.69,10.31,7.57,0.00,0.00,0.00,0.00,3833.00,493143
25.322550,57.322517,219.50,12,210.30,-40.50,-47.25,22.05,0.00,0.00,0.00,22.77,0.73,24.35,0.00,0.00,0.00,0.00,3830.00,493403
25.322550,57.322517,219.50,12,211.10,-39.90,-47.25,23.10,0.00,0.00,0.00,0.18,22.34,32.23,0.00,0.00,0.00,0.00,3835.00,493655
25.322578,57.322567,223.00,12,211.90,-41.25,-48.15,22.65,0.00,0.00,0.00,43.15,11.11,13.49,0.00,0.00,0.00,0.00,3836.00,493950
25.322578,57.322567,223.00,12,212.87,-40.50,-47.85,22.65,0.00,0.00,0.00,-10.13,30.70,15.08,0.00,0.00,0.00,0.00,3833.00,494204
25.322578,57.322567,223.00,12,213.85,-40.95,-47.85,22.80,0.00,0.00,0.00,5.07,4.15,12.39,0.00,0.00,0.00,0.00,3839.00,494459
25.322578,57.322567,223.00,12,214.82,-42.15,-47.40,22.95,0.00,0.00,0.00,-7.81,21.36,-15.08,0.00,0.00,0.00,0.00,3837.00,494726
25.322609,57.322617,223.00,12,215.79,-42.15,-48.00,23.55,0.00,0.00,0.00,13.92,6.59,22.16,0.00,0.00,0.00,0.00,3836.00,494987
25.322609,57.322617,226.30,12,216.77,-42.00,-52.35,22.50,0.00,0.00,0.00,-10.19,1.10,26.79,0.00,0.00,0.00,0.00,3834.00,495249
25.322609,57.322617,226.30,12,217.59,-41.40,-47.70,21.90,0.00,0.00,0.00,11.72,12.39,-8.48,0.00,0.00,0.00,0.00,3840.00,495519
25.322638,57.322659,226.30,12,218.42,-41.10,-46.95,22.50,0.00,0.00,0.00,-3.11,18.98,21.61,0.00,0.00,0.00,0.00,3837.00,495778
25.322638,57.322659,226.30,12,219.24,-39.30,-47.25,22.65,0.00,0.00,0.00,-9.03,30.09,14.71,0.00,0.00,0.00,0.00,3834.00,496085
25.322638,57.322659,226.30,12,220.07,-38.55,-47.55,22.65,0.00,0.00,0.00,-7.14,-10.56,-10.25,0.00,0.00,0.00,0.00,3838.00,496345
25.322638,57.322659,226.30,12,220.74,-39.75,-47.10,23.40,0.00,0.00,0.00,-13.18,2.81,-3.05,0.00,0.00,0.00,0.00,3841.00,496608
25.322668,57.322704,226.30,12,221.87,-39.45,-46.65,22.05,0.00,0.00,0.00,15.99,-9.09,27.47,0.00,0.00,0.00,0.00,3838.00,496867
25.322668,57.322704,232.60,12,-1.00,-39.60,-46.65,22.65,0.00,0.00,0.00,-0.06,11.60,17.03,0.00,0.00,0.00,0.00,3835.00,497135
25.322668,57.322704,232.60,12,222.92,-40.95,-50.85,22.80,0.00,0.00,0.00,-3.48,14.10,-15.56,0.00,0.00,0.00,0.00,3840.00,497399
